time_tick,acc_X_value,acc_Y_value,acc_Z_value,acc_A_value,acc_B_value,acc_C_value
0.024871,0.477511,2.718863,-8.791673,-0.690752,3.462289,-9.768542
0.058072,0.285968,3.325964,-8.903007,0.13004,3.317734,-9.133308
0.091385,0.506092,3.888322,-9.360316,-0.418252,3.783273,-9.062377
0.124698,0.301381,3.679421,-9.353582,-0.388174,3.5205,-9.097393
0.158031,0.874064,3.36951,-9.004914,-0.257536,3.851959,-8.992943
0.191382,0.313951,3.638269,-9.317967,-0.340138,3.792401,-8.933235
0.224718,0.623113,3.681516,-9.137797,0.405981,3.762173,-9.083925
0.258027,0.399547,3.466778,-9.134505,-0.19289,3.73434,-9.020926
0.291411,0.61174,3.567937,-9.238806,-0.244966,3.801978,-8.973938
0.324718,0.58271,3.561352,-9.256613,-0.281179,3.794496,-9.00656
0.358316,0.529437,3.599511,-9.130315,0.212493,3.623155,-9.176105
0.391385,0.484694,3.815596,-9.333829,-0.449677,3.735238,-8.954335
0.424048,0.987943,3.657573,-9.050405,-0.02933,3.943541,-8.88071
0.45853,0.400145,3.822629,-9.516244,-0.024392,3.512419,-8.991895
0.491387,0.278486,3.268501,-8.930841,-0.12151,3.888472,-9.000574
0.524717,0.823186,3.571379,-9.357473,0.329663,3.718029,-9.074348
0.558295,0.956667,2.887061,-8.769376,-0.777245,3.762024,-8.825043
0.59138,0.460302,3.21882,-8.999976,0.305272,3.765017,-9.161291
0.624714,0.715443,3.823377,-9.273972,-0.652593,3.36113,-8.883105
0.658032,0.125999,3.318332,-9.426159,-0.246163,4.091238,-8.773716
0.691416,1.104066,3.481593,-8.77611,-0.597075,3.459895,-9.156353
0.724745,0.673992,3.472016,-9.382014,0.286566,3.6254,-9.010301
0.758077,0.822288,3.757534,-9.302554,-0.119714,3.777587,-9.094101
0.791436,0.329214,3.613279,-9.181942,-0.302279,3.909871,-8.690215
0.824717,0.723823,3.701418,-9.310784,-0.568194,3.328508,-9.030054
0.858094,0.733849,3.564345,-10.478747,0.207106,3.376992,-9.156802
0.891405,0.239878,0.53243,-12.00331,-0.095323,3.822928,-9.263946
0.924754,-0.644213,0.990337,-17.029517,-0.030078,3.520799,-9.248233
0.958047,-0.763179,-1.962717,-8.835518,-0.2095,3.381033,-9.147973
0.991387,0.826029,-0.44863,-9.626531,0.107294,3.51646,-9.123282
1.024719,0.445337,-0.327868,-8.427741,0.255441,3.441339,-9.176704
1.058049,-0.868677,3.372054,-10.019792,0.001347,3.523493,-9.047413
1.091401,-0.01676,3.343472,-8.500168,-0.815404,3.649043,-8.933085
1.124749,-0.305421,2.415686,-7.209797,-0.530035,3.269848,-8.92291
1.158076,-1.846145,5.990955,-14.785022,-0.550836,3.662212,-9.061329
1.191403,-1.903608,4.483303,-7.997518,0.709008,3.674183,-9.238956
1.224711,-0.919406,2.387853,-6.724056,-0.227607,3.381182,-9.346698
1.258073,-0.882295,3.235879,-8.615693,0.019304,3.408268,-9.232072
1.291385,-1.884154,6.336481,-13.685446,0.37291,3.759929,-9.078089
1.324716,-1.472337,2.582688,-7.166251,0.289409,3.722967,-9.002819
1.358048,-1.908247,3.409166,-9.435287,0.341186,3.62959,-9.100087
1.391386,-0.601116,3.357389,-9.574455,0.17179,3.859292,-9.064622
1.424697,0.873765,3.65862,-9.808497,0.491427,3.747059,-8.928297
1.45805,0.851618,1.642032,-6.787804,0.302279,3.995616,-9.104576
1.491385,-0.501753,2.612467,-7.738486,0.763927,3.395698,-8.799753
1.524702,-1.070097,3.301273,-8.378209,-1.060071,3.931719,-8.920366
1.558049,0.957266,1.630809,-5.659347,0.426782,3.814997,-8.781946
1.590872,1.088802,3.747658,-4.502756,1.51304,3.441189,-9.085123
1.624716,0.439801,9.133158,-4.582965,-0.148595,3.842681,-9.487512
1.658069,-8.118878,1.003356,-24.395691,-1.838064,3.561203,-9.455639
1.69139,-2.080785,1.976334,-8.50795,-0.026936,2.95874,-10.109728
1.724703,2.384261,5.883212,-22.372369,0.001945,4.683824,-13.706097
1.758051,0.605755,4.269912,-7.403136,-2.785304,2.517892,-12.255757
1.791387,0.345675,3.283166,-10.359033,-2.770789,4.752211,-15.94296
1.82469,0.007183,2.689383,-8.416518,-11.602566,-13.445718,-18.222919
1.858049,1.172452,4.046645,-9.726343,-8.591002,-27.335876,-12.587216
1.891383,1.799606,3.664606,-9.31692,-6.226643,-2.058937,-18.129842
1.924714,-0.323378,4.286373,-9.798919,-2.264696,6.83554,-11.976224
1.958051,0.720082,3.773097,-9.119391,1.339753,11.009082,-11.348023
1.991413,-0.021998,3.925284,-9.076743,6.344412,4.570545,-2.885565
2.024747,0.93048,3.845225,-9.254967,12.106114,11.585058,-9.752081
2.058052,0.818397,3.887424,-9.557246,3.958355,19.055682,11.577127
2.091381,0.508487,3.840437,-8.49927,16.017631,31.148479,6.084333
2.124714,0.297191,4.156931,-9.855634,-2.609474,-5.728482,-5.672515
2.158055,1.437171,3.739577,-8.359055,-6.401875,8.997432,-12.029796
2.19138,0.09233,4.079416,-9.503225,4.820448,2.942429,-9.768991
2.224721,0.245564,3.725212,-8.757105,2.432296,5.164328,-9.382762
2.25812,0.75854,4.34593,-8.889689,-2.497391,4.67305,-8.931888
2.291387,0.403886,4.021804,-9.528664,1.027,4.297147,-9.039781
2.324715,0.753452,5.693316,-9.67292,0.333554,4.043203,-9.032897
2.358046,-0.113579,2.803561,-10.190385,0.109988,4.079267,-8.932636
2.391407,1.280794,3.290499,-11.471479,0.34373,4.126554,-8.623773
2.424713,0.415558,0.713498,-10.327907,-0.951729,4.439308,-8.907496
2.458053,0.539912,1.830881,-11.090787,0.610992,4.122663,-8.887893
2.4914,1.123968,1.55928,-10.840135,-0.569691,4.11997,-8.822798
2.524804,0.896062,2.393988,-11.584309,0.181517,4.128649,-8.963313
2.558048,0.557121,2.088716,-8.847639,0.138569,4.088545,-8.769675
2.591409,-0.58271,2.58598,-8.899116,-0.01676,3.874256,-8.820703
2.624827,-0.283424,4.100217,-11.276045,-0.525845,4.05712,-8.895525
2.658026,-0.365877,6.164092,-10.895054,0.216833,3.959403,-9.034244
2.691469,0.177925,3.918251,-7.729208,-0.07976,3.986039,-8.903007
2.724719,0.147099,3.910769,-6.216318,0.093676,3.979904,-8.841654
2.758137,0.655286,5.047906,-12.178991,-0.209799,4.044101,-8.971544
2.791458,0.287763,4.787527,-10.565391,0.057912,3.942194,-8.929494
2.824751,-0.361837,2.906066,-4.871776,0.189598,3.933215,-8.978876
2.857344,0.114626,2.698511,-7.360039,0.010325,4.04036,-9.085721
2.891385,-0.123007,7.211144,-8.108403,-0.203963,4.006989,-8.923059
2.924843,-2.203792,8.629011,-10.651136,-0.087541,3.924237,-9.04412
2.958139,-3.732694,7.398946,-3.43266,0.03337,4.3166,-9.216958
2.991469,-2.089464,16.149317,6.118601,-0.03352,4.106053,-9.118493
3.02477,-2.488113,5.079031,-33.723534,0.358096,4.401149,-9.403712
3.058047,1.059921,-1.860211,-11.567101,0.658728,3.841484,-9.918185
3.09145,-0.1465,3.10973,-7.258281,-1.793171,6.324958,-10.484883
3.125478,-0.068088,3.635426,-9.670675,0.042798,4.299392,-12.565818
3.158137,1.328231,3.161058,-8.708471,-3.985141,0.778592,-19.24947
3.191472,0.300483,3.652036,-9.720058,-5.21356,-13.337825,-16.814031
3.224787,0.383834,3.49551,-9.41733,-1.509598,-10.349456,-13.872649
3.258137,-0.009128,3.04688,-8.995486,-2.645687,0.999316,-11.830173
3.291471,0.052824,3.117512,-9.169521,-3.090127,4.961562,-10.241264
3.324789,0.889777,3.627644,-9.319613,-0.996472,7.024988,-12.106563
3.358135,0.415259,3.05945,-8.885649,-3.427572,5.77951,-8.024154
3.391469,0.780388,3.626746,-9.187179,-0.00404,6.440632,-2.702701
3.424772,0.324875,3.828166,-9.430648,2.901427,8.277051,-4.557226
3.45814,0.654089,3.7927,-9.225188,3.301722,20.34351,-10.68286
3.491462,0.644811,3.685406,-9.24973,2.609324,12.898773,7.848174
3.524804,0.808222,3.529329,-9.397427,8.530546,36.035967,-12.052692
3.558136,0.432318,3.976163,-9.591814,7.736391,-8.751419,-10.856147
3.591471,1.426845,3.670741,-9.445164,-1.742891,8.079372,-13.499889
3.624804,0.717388,2.826306,-8.632303,1.460665,2.944674,-8.491938
3.658135,1.232459,1.431634,-11.237587,-0.312903,3.740026,-8.360851
3.691468,-0.268759,3.693936,-12.15804,-0.153833,4.206613,-8.825193
3.724803,0.046689,3.202509,-14.095318,0.132434,4.16606,-8.986658
3.758146,-0.196332,1.374321,-13.24385,0.276989,3.838791,-9.332782
3.791469,0.710954,0.968489,-9.639699,-0.408376,4.037816,-8.657892
3.824806,-0.341485,1.207319,-9.537792,0.323528,3.648295,-8.882057
3.858155,-0.790414,2.391444,-9.118194,0.082453,3.870814,-8.962864
3.891474,0.20531,4.843643,-10.028621,-0.051627,3.890417,-8.879962
3.924716,0.005238,5.369189,-8.13893,-0.174334,3.779981,-8.913931
3.958145,-1.139082,5.10058,-6.669137,0.430822,3.882037,-9.141388
3.991385,-1.73496,6.405766,-8.034031,0.017059,3.930522,-9.065519
4.024714,-1.344991,8.771621,-13.35698,0.289709,4.014471,-8.975584
4.058046,-0.425884,3.259972,-5.006754,0.266215,3.930222,-8.85153
4.091386,0.07542,2.875838,-7.016608,0.614284,4.094081,-8.878615
4.124717,-1.13564,7.243168,-13.186536,0.274894,4.038115,-8.884002
4.158052,-1.637842,1.491491,-7.86224,-0.058061,3.917203,-8.925902
4.191422,-0.788768,2.410748,-9.500082,-0.114626,3.977061,-9.004465
4.224722,-1.6974,0.95128,-8.862155,0.483197,4.12835,-8.940867
4.25805,-0.519111,2.654666,-7.461347,0.531532,4.26213,-8.99414
4.291381,-0.751657,2.197058,-5.496685,0.166104,4.488839,-9.279509
4.324718,-0.005836,2.401021,-3.612381,0.378148,4.268715,-9.349392
4.358034,-1.714459,4.690558,-9.068512,-1.342597,4.45921,-10.187692
4.391398,4.560369,33.957127,32.351009,-1.191457,3.83909,-10.38971
4.42472,3.731646,7.837699,-44.787086,0.623413,3.467227,-8.376264
4.458049,-0.885886,-5.709327,-0.17194,-1.771324,5.924963,-9.104875
4.491438,0.802236,-2.160695,-16.314373,-4.418507,7.015261,-12.769332
4.524701,0.339241,2.148573,-3.375496,-4.597331,0.998567,-14.640168
4.558049,-0.009128,6.598506,-10.763518,-7.772904,-11.241477,-12.461965
4.59138,1.273013,3.165397,-7.772455,-2.332634,-2.885266,-14.495763
4.62472,0.430223,3.412009,-8.42804,-1.336611,-1.157189,-7.584503
4.658048,0.365278,3.908973,-9.537344,-0.674441,5.168518,-12.481569
4.691368,0.863589,3.605048,-9.047562,-1.082068,4.790071,-10.859439
4.724715,0.558767,3.712043,-9.123282,-2.583286,6.816536,-10.04194
4.758057,0.324725,3.757235,-9.351786,1.681987,7.012119,-9.460726
4.791383,-0.101159,3.586493,-9.130315,3.950424,8.95613,-11.514426
4.82472,0.564603,3.243212,-9.00671,0.119116,10.847318,-3.351852
4.85805,0.626256,3.935909,-9.272924,2.467014,8.72598,-0.992582
4.891388,0.734597,3.957607,-9.397427,7.694341,24.904178,-15.964658
4.924714,-0.069734,4.015369,-9.840071,5.279104,15.002454,-1.157339
4.958047,2.180298,3.816643,-8.748127,12.499975,20.89255,2.808648
4.991373,-0.045791,3.479498,-9.284597,-5.972549,-3.309204,-7.981955
5.024703,1.834473,4.525801,-8.743787,-1.996387,7.717236,-9.947814
5.058032,0.529287,3.489524,-9.474643,3.4367,4.822992,-8.419511
5.091144,0.657531,3.031168,-12.273565,0.062251,3.663708,-8.864699
5.124685,-1.166167,0.985848,-12.283292,0.145902,4.766876,-9.655711
5.158046,-3.547286,4.011179,-12.026654,0.156676,3.708601,-8.540871
5.191387,-0.716939,-0.332207,-10.605794,-0.87586,4.201675,-8.758452
5.224717,2.630424,1.708623,-10.620759,-0.521805,4.179228,-8.402601
5.258094,1.535636,0.278486,-8.452582,-0.11717,4.674247,-8.556733
5.291382,0.385181,2.282504,-10.136963,0.249305,4.130594,-8.929644
5.32471,-0.647954,3.442835,-10.600706,-0.121809,4.104706,-8.796162
5.357307,-1.37447,3.37804,-9.272775,-0.766621,4.432723,-8.752466
5.391369,-0.545149,3.47875,-8.853326,-0.211894,4.335306,-8.580227
5.424714,-0.388024,4.725575,-12.93364,-0.15488,4.623518,-8.599831
5.458053,-0.158173,3.325366,-8.26044,1.193103,4.246268,-9.160543
5.491364,-0.126299,2.291333,-8.457071,-0.045342,4.492431,-8.808133
5.524716,-1.326734,1.196246,-7.623859,-0.062401,4.708216,-8.501216
5.558044,-1.432532,4.350569,-16.053845,-0.905639,4.497818,-8.594144
5.59136,-0.589444,4.646264,-6.103337,0.496964,4.661827,-8.73421
5.624715,0.498461,5.006754,-6.311042,0.254692,4.423296,-8.923957
5.657985,-1.481465,5.75856,-6.032556,-0.161315,4.397857,-9.07779
5.691157,-1.033733,9.507265,-9.32081,0.257236,4.64372,-9.430349
5.724715,0.263072,15.019064,8.839409,0.486938,4.441852,-9.398176
5.758053,-0.939608,6.923979,-16.810589,-0.698384,4.61005,-9.029306
5.791382,1.450938,2.911004,-17.169583,-0.059109,4.414467,-9.357173
5.824713,1.829684,3.723266,-26.263235,0.486938,7.520306,-10.403178
5.858053,0.283723,-1.754264,-9.442171,-1.633951,5.497134,-9.606179
5.891618,1.043011,4.99553,-10.6661,-5.025459,5.277308,-15.575436
5.924706,1.184723,4.469685,-10.417094,-6.299369,-1.283787,-12.834127
5.958048,1.018021,3.39914,-8.893879,-2.584483,-2.083628,-11.965001
5.991357,0.219676,3.286009,-8.918271,-5.575247,-5.669073,-11.615286
6.024708,1.069797,3.532172,-8.959273,-6.003076,-6.573066,-11.901702
6.058049,1.3203,3.659219,-9.092754,-6.019238,-1.194151,-12.56896
6.091161,1.1735,3.713539,-9.0525,-3.752147,2.675167,-10.10479
6.124717,0.994078,3.751399,-9.040828,-1.890589,3.633331,-8.951491
6.158053,0.476762,3.754691,-9.487812,2.90846,10.554467,-11.642521
6.191373,1.553443,3.542049,-8.551795,10.457348,16.662892,2.163238
6.224715,0.921352,3.982897,-9.024368,11.347574,25.951978,0.202168
6.258052,1.042712,3.893709,-8.908993,13.454397,24.084434,1.737355
6.291382,1.104664,4.131492,-9.310485,13.651776,15.471584,-4.025096
6.324718,1.119329,4.439008,-9.043073,-3.807365,-1.107657,-6.18609
6.35804,1.478323,4.370472,-9.007608,-2.966971,7.114475,-10.933063
6.391383,0.244217,4.60197,-8.859311,2.225191,4.20796,-8.947301
6.42472,0.518662,4.11997,-8.841504,-1.203878,4.199879,-8.734509
6.458049,0.548441,4.415814,-9.051453,0.512377,4.163665,-8.67555
6.491384,0.662469,4.547051,-8.93533,0.713647,4.139274,-8.858414
6.52472,1.025353,4.017763,-9.390245,0.577921,4.145259,-8.80948
6.558049,1.229317,5.062571,-9.362112,0.281778,4.174739,-9.021973
6.590486,0.899204,5.881117,-8.657443,0.806426,4.020756,-9.020178
6.624721,-0.241224,2.757321,-10.789256,0.283274,3.896852,-9.118942
6.658142,0.001646,2.555004,-13.931309,0.471525,3.640663,-9.051453
6.691475,3.190238,3.397643,-12.566865,0.357647,3.852558,-9.084973
6.724713,2.277566,0.461349,-8.890886,-0.130638,3.931868,-8.916625
6.758135,0.388473,1.569006,-9.103678,0.879751,3.943241,-8.869786
6.791473,-0.17583,3.577963,-10.049272,0.41077,3.47845,-8.946254
6.824801,0.728612,5.871391,-9.990313,0.375005,3.691093,-9.098291
6.858136,-0.240476,5.650967,-11.323033,0.467784,3.959702,-8.927549
6.891475,-0.486789,5.106416,-8.435223,0.490829,3.833104,-8.967803
6.924802,-0.698683,5.89249,-7.95472,-0.260079,4.100067,-8.830131
6.958139,-2.114604,3.561352,-7.758837,0.115973,4.071485,-8.941765
6.991469,1.928299,6.750543,-15.319397,0.497264,4.064153,-8.677944
7.024803,0.869874,4.638033,-9.225787,0.053123,3.776389,-9.198851
7.058124,0.297341,4.893923,-6.792892,0.097418,4.353413,-9.059534
7.091081,-2.084975,6.654173,-12.120031,-0.17164,4.503654,-9.514747
7.124722,-3.948329,8.330623,-5.968359,0.250652,4.437362,-9.546921
7.15816,0.790713,13.125033,12.632858,-0.246462,4.047692,-8.936826
7.191475,2.587626,6.15242,-55.838966,-0.428877,3.764568,-9.085871
7.224781,-2.310188,10.09222,-0.311407,-0.736094,6.959893,-9.495892
7.258114,-5.193957,8.444501,-32.723471,-0.640322,6.778676,-9.347896
7.291471,2.426011,-0.403288,-2.799221,-4.065051,7.033667,-11.319741
7.324807,-0.835457,5.986915,-11.866237,-2.9336,7.634933,-19.685081
7.358017,0.724571,2.586878,-8.839858,-11.763582,-5.331928,-15.120672
7.391468,0.65783,3.039697,-9.164882,-8.694405,-12.678648,-14.305417
7.424807,1.272713,4.204817,-9.775276,-4.567552,-6.418785,-14.462692
7.458137,0.671149,3.942942,-9.820318,-0.002544,2.092757,-15.429535
7.491475,0.531681,3.47037,-8.98127,-0.552631,3.725062,-13.385412
7.524803,0.809269,3.795843,-9.153809,-1.648018,3.072469,-5.867799
7.558136,-0.341336,3.846273,-9.311832,0.165804,-0.358245,-6.825215
7.591477,1.173949,4.565457,-9.630272,8.430584,14.697631,5.441317
7.624801,0.181218,3.071721,-8.581873,27.698909,32.446931,9.695217
7.658135,2.496793,3.275834,-8.896872,16.281153,45.395684,9.335775
7.691488,-0.673543,4.653746,-9.595555,-2.136452,-3.439992,1.514686
7.724801,1.154944,1.574693,-8.348281,-3.157466,6.546131,-10.522293
7.758087,0.521805,2.285946,-9.67711,3.682414,4.783187,-9.326347
7.791451,1.206122,3.866624,-9.154557,-0.223716,4.784085,-8.655198
7.824805,1.350378,4.914873,-9.145129,1.188913,4.212748,-8.861107
7.858139,-0.01257,4.917417,-8.844796,0.552781,4.075825,-8.706077
7.891449,0.851917,1.352922,-15.757253,0.674441,3.700371,-9.366152
7.924801,2.531959,5.148915,-12.951896,0.191842,3.490721,-9.068662
7.95814,2.27592,-1.140279,-7.325471,-1.031788,4.847683,-8.882207
7.991472,1.69725,1.945358,-12.805097,0.82124,4.142566,-9.08602
8.024809,0.850571,2.929111,-12.123772,0.401193,3.826221,-9.09021
8.058043,-0.819594,2.099191,-8.214799,0.235239,4.084654,-8.990997
8.091471,-1.683184,2.934049,-11.241477,0.262623,4.029885,-8.923957
8.124786,-1.314913,4.209306,-10.802874,0.145603,3.981999,-8.852428
8.158106,-0.061054,4.255247,-9.800117,0.240177,4.049338,-8.889689
8.191469,0.121959,3.403479,-9.292977,0.170892,4.104856,-9.014491
8.224816,-0.820941,6.094209,-12.571205,-0.098764,4.039162,-8.869786
8.258175,-3.51212,4.785581,-7.217429,0.665911,3.963892,-9.027211
8.291303,-2.527619,5.260997,-8.354566,-0.408974,4.132091,-8.892382
8.324733,-1.058873,5.956089,-9.504871,0.124204,4.118473,-8.921563
8.358086,0.010625,4.4004,-7.215184,0.215785,4.233549,-8.907347
8.391462,1.784193,2.796228,-5.862711,0.850122,4.183269,-9.00641
8.424632,0.777545,1.587861,-11.174437,0.006285,4.06535,-9.188676
8.45808,-2.137799,3.312047,-7.147546,0.307816,4.275299,-9.144232
8.491471,-3.532172,3.250095,-4.259138,-0.356749,3.987386,-10.116162
8.5248,1.072491,21.372155,22.094631,-0.089187,3.900593,-9.567871
8.558141,4.546153,6.178308,-43.459754,-0.461499,3.932916,-8.831478
8.591473,7.068385,5.480523,2.654217,-1.250416,4.192696,-10.216274
8.624799,-7.722324,31.511512,-54.717692,-0.211595,5.808241,-8.779701
8.658113,-2.715571,-0.344179,5.649021,-2.930009,6.316129,-11.038412
8.691468,3.929025,-1.076831,-7.250051,-3.647547,-0.249455,-26.188713
8.724761,-0.697935,1.197593,-3.722219,-3.911667,-9.947365,-14.931224
8.758053,-1.418465,7.662916,-10.462736,-10.430712,-2.524028,-10.886824
8.791403,0.991085,3.274038,-7.597672,-5.997989,-3.750202,-13.429108
8.824789,1.150156,3.57931,-8.899715,-3.536811,-1.91513,-12.169713
8.85814,1.143272,3.916605,-9.048161,-1.469045,3.57482,-14.753597
8.89147,0.981658,3.802128,-8.986358,-1.771623,5.125869,-13.938492
8.924802,0.566399,4.53463,-9.37947,-0.326371,3.524241,-5.890395
8.958127,0.639424,3.737033,-9.011798,2.453845,1.13145,-2.037389
8.991455,1.811428,4.82793,-8.810378,1.566163,26.082167,-6.290391
9.024813,0.448779,4.053977,-8.718348,16.019726,34.078488,3.780729
9.058081,1.661336,3.231091,-9.532405,22.619429,37.884656,15.18846
9.091471,-0.714994,3.853904,-8.681236,-2.832292,-10.470068,1.499871
9.124803,1.066655,4.320641,-8.91842,-0.669802,9.445762,-12.858669
9.158112,0.723075,3.945336,-8.936677,1.717003,3.310551,-8.852428
9.191465,0.768267,4.619328,-8.841504,-0.54051,4.58491,-8.651308
9.224804,1.058724,4.393667,-9.854886,0.254094,4.706271,-8.51633
9.258102,1.630809,5.403457,-11.013571,0.676236,4.172943,-8.581574
9.291253,0.52824,-1.200286,-10.936655,-0.46105,4.030034,-9.215611
9.324615,-2.110714,4.297147,-12.846847,-0.84249,4.185064,-8.967354
9.358021,2.769592,2.819872,-12.098333,0.748514,4.068792,-8.950444
9.391303,4.250608,2.352686,-7.145151,-0.182864,4.142566,-8.615094
9.424629,1.297554,3.249946,-7.095769,0.245564,3.951023,-8.99384
9.457997,-1.31611,5.362305,-10.391057,0.777245,4.018811,-9.028857
9.491252,-2.317221,7.735194,-8.096432,0.685814,4.171746,-8.589804
9.524598,-0.192441,5.299455,-9.301207,-1.024306,4.145708,-8.934881
9.558135,0.978665,5.090853,-9.529263,0.724122,4.30014,-8.821152
9.59144,0.87182,5.462117,-10.094315,-0.642417,4.257192,-8.754561
9.624785,0.115824,2.902026,-6.997155,-0.137522,4.305228,-8.786286
9.65813,-0.992881,3.998011,-11.200475,-0.49861,4.404291,-8.829383
9.691468,-1.813523,3.847021,-8.00904,0.313652,4.250159,-8.754711
9.724796,-0.987195,4.7148,-7.752103,-0.349566,4.293107,-8.705179
9.75813,-1.08147,4.590597,-7.294046,-0.236585,4.239534,-8.705927
9.791266,-2.727991,5.080827,-10.735086,0.357647,4.116677,-8.806487
9.824796,-1.973491,3.470669,-8.430584,0.025439,4.007588,-9.142585
9.858142,-0.68716,0.571636,-7.9212,0.273098,4.113385,-9.031101
9.891485,-0.766322,-0.917311,-13.160199,-0.337295,4.067445,-8.97304
9.924799,0.363333,0.545598,-12.674009,0.21788,3.931868,-8.775511
9.958127,0.414361,-0.950682,-8.067102,-0.652593,3.980353,-9.14468
9.991466,-5.138888,5.390289,-9.261103,-0.235987,4.275898,-9.426458
10.024778,0.177327,23.533299,15.269117,-0.562209,3.883983,-9.533004
10.058128,5.375175,7.222367,-18.764926,-0.165056,3.255183,-9.90367
10.090764,-8.883554,14.117615,18.029132,0.442195,4.089592,-10.797487
10.123937,-8.561821,9.643291,-17.933959,-0.085296,4.451279,-10.990975
10.157109,5.543523,4.378852,-8.238592,-1.760699,6.182798,-16.975197
10.19143,0.840694,3.057355,-9.552906,-2.352537,-4.347128,-17.801375
10.224802,-0.189598,4.012376,-8.878316,0.66202,-6.055152,-16.136747
10.258076,1.514237,4.015968,-9.395183,-1.263735,-2.590319,-11.804135
10.291418,-0.400445,3.360382,-9.339366,-5.616848,-1.18203,-6.478492
10.324793,0.818397,4.024797,-9.445912,-3.285261,3.50793,-14.348065
10.358104,1.420411,3.865277,-8.950594,-3.110478,4.112787,-12.741349
10.391391,0.492924,3.899546,-9.389197,-0.573581,2.806404,-7.17927
10.424796,0.498461,3.68406,-9.124329,2.205737,8.251611,-18.168001
10.458123,0.696438,3.433258,-9.120738,-1.196246,20.640102,5.967013
10.491492,0.504746,4.80279,-9.601391,14.804626,26.1941,-4.148102
10.524422,1.197293,2.466714,-8.440161,13.105131,35.615321,7.023941
10.558022,0.157724,3.554918,-9.375131,12.024709,-2.392791,-21.732645
10.591411,0.571187,3.413356,-9.11116,-9.759264,9.680851,-12.65291
10.624798,0.592137,4.454721,-9.245241,3.670293,3.199067,-8.481912
10.658104,1.678096,3.666851,-9.693421,-0.521655,4.701931,-9.477337
10.691466,0.306169,5.37278,-9.534201,1.72269,4.172644,-8.483708
10.724818,1.263585,-0.421843,-12.840861,-1.08985,4.102611,-8.98576
10.758129,1.783295,4.01911,-10.073365,1.041066,4.345482,-8.785537
10.791466,1.239343,0.060306,-8.459316,-0.449378,4.550043,-8.881758
10.824764,0.611591,2.556799,-10.998607,-0.896361,4.068642,-8.81816
10.858112,-0.296592,2.509363,-9.934646,-0.432618,4.628307,-8.724483
10.89145,-1.383748,3.119756,-10.767409,-0.029031,4.660181,-8.602973
10.924783,-1.256402,2.193466,-7.804029,0,4.403693,-8.72164
10.95813,-0.020501,4.50964,-11.21095,-0.179572,4.379899,-8.589356
10.991418,-0.063449,3.68795,-9.085871,-0.249006,4.678886,-8.648464
11.02474,-0.017508,4.367928,-10.623901,-0.226709,4.292059,-8.664327
11.058126,-0.308863,4.960215,-11.405486,0.211894,4.423595,-8.81786
11.091369,-0.014964,4.729316,-10.013058,0.18436,4.491533,-8.930092
11.124697,-1.229018,3.045384,-7.850269,-0.357796,4.492581,-8.626467
11.158073,-0.471375,2.96727,-8.898368,-0.681025,4.667663,-8.542966
11.191393,-0.106097,3.859741,-13.334683,-0.072876,4.53493,-8.615992
11.224737,-0.861943,6.923231,-6.488369,0.13827,4.918913,-8.686025
11.258048,0.157873,4.205116,-5.197249,-0.017658,4.551989,-8.818908
11.291397,-1.27825,6.36641,-6.723757,0.062401,4.868035,-8.824295
11.325167,-3.871562,5.547713,-8.958525,-0.164158,4.998523,-8.975883
11.357837,-0.235837,19.398215,21.422435,-0.380692,4.699986,-8.698744
11.391035,5.436528,4.265273,-40.484552,-0.680277,4.708964,-8.697248
11.424167,2.061631,5.060476,2.080486,-0.59079,2.966821,-9.972505
11.458069,-1.182329,3.366966,-19.079476,-0.72936,5.776068,-9.439327
11.491459,6.863224,3.360831,-10.866921,-2.355979,6.799476,-10.988132
11.524752,0.159519,4.596133,-12.136791,-3.65443,5.429794,-18.806228
11.558106,1.383898,4.633694,-10.740623,-6.733933,-8.862155,-16.061477
11.591392,0.078862,3.111376,-8.435373,-5.64528,-7.386974,-12.872586
11.624628,1.12756,3.610286,-9.278761,-2.139146,-1.685728,-12.58976
11.658112,0.390718,3.729701,-9.389347,-1.373423,2.052503,-11.187157
11.691442,0.405981,3.699174,-9.326646,-2.248086,3.886078,-12.008996
11.724724,0.819445,3.680468,-9.326796,-2.501731,4.16157,-11.146155
11.758078,0.597075,3.626148,-9.293725,-1.287977,2.857881,-6.317177
11.791474,0.693595,3.635725,-9.271129,-0.086494,3.552823,-7.737438
11.824743,1.054683,3.751848,-9.339366,8.138781,22.524705,-6.68051
11.858066,0.459105,4.400101,-9.399822,10.369508,33.605017,2.002971
11.891412,0.809568,3.117212,-9.195559,16.151412,30.488553,6.445421
11.92473,1.100774,4.17444,-9.542132,12.875728,3.252041,-15.956727
11.958117,0.012121,2.717516,-8.702635,-5.546067,6.083884,-13.10139
11.991462,-0.15518,4.914424,-8.962266,3.057056,3.853007,-9.544975
12.024739,0.217431,5.043566,-9.731131,0.69135,4.006989,-8.603871
12.058086,0.731904,7.42244,-10.373099,0.00838,4.467141,-8.530247
12.091426,1.916627,5.784448,-9.135702,0.315148,3.785218,-8.747977
12.123768,0.800141,4.742634,-9.518937,1.016973,4.025096,-9.118792
12.158079,2.82496,5.442065,-17.09102,0.832613,4.033925,-9.108916
12.191486,1.354718,3.61702,-12.582727,-1.611655,4.545853,-8.907796
12.224783,-1.429689,-0.571187,-8.639935,0.820193,4.0863,-9.026014
12.257916,-0.805528,1.494933,-8.960021,0.207405,4.096476,-8.846442
12.291456,0.550387,2.493201,-9.684892,-0.116422,3.894158,-8.88071
12.324821,0.319937,3.903586,-11.240131,-0.128244,4.159625,-8.647118
12.358126,-1.952691,5.619991,-9.528664,0.154282,4.13239,-8.819656
12.391494,-2.349095,7.07048,-9.249879,0.208453,4.037367,-8.954484
12.424808,-0.645859,6.118152,-8.741692,0.209051,4.128499,-8.871133
12.458129,0.451323,7.136921,-11.510984,0.106546,4.143164,-8.787483
12.491477,0.130938,5.468402,-7.8582,0.138869,4.155734,-8.92291
12.524798,-0.635683,3.884282,-8.295906,0.434413,4.384987,-8.766832
12.55812,-1.513339,7.733099,-8.256849,-0.231647,4.324083,-8.848088
12.591465,-1.398713,6.625741,-8.511242,-0.178225,4.386035,-8.93548
12.623734,-1.482213,6.275277,-5.432937,0.593933,4.653746,-9.000724
12.658109,-0.751357,5.064516,-3.631834,-0.405083,4.373614,-9.32081
12.691355,-0.891423,8.627514,-12.606071,0.192142,4.557526,-9.263198
12.724791,-0.045342,16.178049,19.813923,-0.410471,4.447388,-9.045467
12.758127,-2.841121,10.316684,-33.890536,-0.356599,4.364636,-8.859162
12.791496,4.887638,-3.006476,-37.700445,-0.738488,3.156119,-9.478384
12.824808,-0.678631,3.255931,-21.767961,-0.723075,6.669736,-9.754475
12.858159,-0.703172,4.122514,-8.298749,-2.344306,6.297274,-11.137925
12.891461,1.005002,2.922676,-8.766533,-1.960921,-0.763628,-21.233586
12.924802,0.692697,3.961947,-9.988218,-6.819079,-7.35944,-16.071054
12.958162,1.093142,3.522894,-8.812174,-5.098036,-2.758967,-12.150558
12.991452,-0.315148,3.751698,-9.432294,-2.998695,-4.32932,-13.179503
13.024806,1.594146,3.797938,-8.613897,-3.616421,2.733827,-15.093437
13.05817,1.271666,4.054576,-9.047113,-4.626511,3.64635,-10.738976
13.091467,1.073987,3.592329,-8.810378,-3.319081,4.019858,-9.708834
13.12481,1.109752,4.107549,-9.107419,-1.21944,9.801613,-10.07965
13.15814,0.774552,3.015006,-8.58756,-0.502052,6.587881,-1.872183
13.191466,-0.250802,3.898947,-9.08183,6.244301,11.807277,-2.541386
13.224305,1.019368,4.751762,-9.146775,7.208001,24.948921,-0.577771
13.258164,1.801103,3.134421,-9.185084,17.332394,45.616408,8.775062
13.291472,1.377164,3.859741,-8.659538,-5.228225,-13.427761,8.715056
13.324808,0.151139,2.311086,-10.436698,-5.196052,8.655947,-9.888705
13.358136,2.046068,0.80478,-14.439198,1.082966,3.185,-9.896936
13.391471,1.879815,7.111781,-15.533088,3.304565,3.707404,-9.226834
13.424807,0.421395,-2.29238,-8.469791,-1.451686,4.121017,-8.942363
13.458144,2.045619,-0.350164,-7.592733,1.373273,4.246568,-8.689916
13.491258,2.330539,1.103617,-7.84144,-0.771559,4.55139,-8.817112
13.524602,0.80478,3.010218,-9.006859,0.041152,4.033177,-8.853775
13.557932,-0.403288,6.170826,-11.941657,-0.463743,4.521911,-8.665524
13.591293,0.520159,7.627002,-9.878978,-0.37321,4.16157,-8.752466
13.624599,0.633439,6.958846,-8.634398,0.432019,4.389028,-8.689616
13.657922,0.068237,7.029477,-8.184721,-0.136025,3.890866,-8.860808
13.691338,-0.615631,6.404868,-7.803131,0.754051,4.103958,-8.766383
13.724078,-0.277139,7.172536,-11.640126,0.089187,4.082409,-8.923658
13.75817,1.061567,4.17025,-6.08134,0.316345,3.905232,-9.045766
13.791156,0.577322,6.130572,-8.906449,-0.294198,4.226366,-8.904504
13.824804,-1.106759,4.000106,-5.916134,0.36468,4.210204,-8.870834
13.858038,-2.348945,5.906706,-10.200411,0.389221,4.092286,-9.006859
13.891151,-1.700842,4.198831,-7.35944,0.233892,4.156931,-8.974686
13.924359,-0.97253,4.185364,-8.062762,0.282526,4.188057,-8.703982
13.957574,-1.351425,4.644767,-9.644937,0.304074,4.142117,-8.93548
13.991431,0.598422,2.922527,-6.714778,0.537966,4.196138,-8.83896
14.024835,-0.482,3.227499,-7.930328,0.122408,4.373315,-9.071505
14.058196,-2.902026,3.761275,-6.189382,0.042199,4.2331,-9.59331
14.091704,-5.270425,5.048654,-7.442342,0.675039,4.998074,-9.362411
14.124828,-5.654558,1.786886,-4.531787,0.194985,4.40474,-9.116697
14.158147,13.73393,1.559429,-11.997773,0.388174,4.469984,-9.027809
14.19136,19.825446,10.203105,-8.633351,-0.688507,4.143314,-9.712725
14.223969,-15.223776,16.277711,-11.425538,0.559365,3.356491,-9.977443
14.258162,1.800354,2.648231,-10.440139,-0.791013,5.819315,-11.389774
14.291357,1.587113,4.692504,-10.246501,-2.919384,3.254734,-13.774783
14.324831,0.886335,3.166295,-9.07764,-5.528858,-0.340737,-22.903302
14.358158,0.376502,2.874342,-8.699942,-1.077579,-7.80792,-12.776964
14.391383,0.226859,3.898049,-9.735172,-7.478257,-1.365642,-9.50113
14.424815,0.737141,3.597566,-9.186132,-4.606608,1.26164,-11.131041
14.458142,1.061717,3.655029,-8.970945,-2.020928,6.094209,-13.814738
14.491477,1.041665,3.649642,-9.022123,-2.926717,5.661891,-8.924556
14.524818,0.315747,3.645601,-9.200647,-3.304416,3.86423,-4.106801
14.558144,0.652892,3.935909,-9.39653,7.375003,12.826346,-17.052861
14.591498,0.778143,4.064153,-9.214863,-4.695347,12.895182,-3.954764
14.624794,0.470178,3.948329,-8.91438,6.879685,22.015321,-4.004296
14.658153,0.265467,4.252853,-9.327095,31.66759,48.534146,21.524492
14.691497,1.208965,2.846508,-10.592177,1.0686,-15.273307,-2.63207
14.724831,2.33847,2.294475,-10.685853,-2.126127,12.035633,-17.630932
14.758192,-0.688507,0.844734,-13.910359,-1.070246,2.174312,-8.945057
14.791457,0.332357,3.582751,-11.842743,-1.721193,3.936807,-8.654301
14.824901,1.237098,0.208902,-9.275468,1.110051,3.806318,-8.797509
14.858143,0.205909,1.2362,-10.208791,0.189448,3.958954,-9.085572
14.89148,-1.088952,1.170357,-7.937062,0.805827,3.709649,-8.793468
14.924717,-0.237932,2.767796,-8.413675,0.995275,3.691392,-9.091108
14.958047,0.944846,4.649107,-10.223756,0.46943,3.927828,-9.01075
14.991471,-1.560776,5.033839,-9.253471,-0.723374,4.272156,-9.072852
15.024842,-1.717452,5.12572,-7.610391,0.130788,3.816793,-8.736604
15.058043,-0.173287,4.743382,-10.84642,0.468532,3.630637,-8.893879
15.091467,0.136923,5.239748,-8.547306,0.046838,3.684509,-8.950743
15.124844,-3.569134,4.533134,-10.086683,0.416606,4.011329,-9.038434
15.158164,-3.852707,4.441702,-7.684016,0.454017,3.656376,-9.202892
15.191476,-0.130339,5.258154,-8.878466,0.587498,3.799434,-9.057588
15.2249,0.706015,9.809095,-10.017249,0.333704,3.955512,-8.719246
15.258138,-0.84234,5.232415,-7.013017,0.297789,4.074179,-8.91438
15.291333,-1.657745,4.464747,-7.620567,0.555325,3.901641,-8.829981
15.324532,-1.02685,3.416348,-8.573643,0.518812,3.989032,-8.932038
15.358139,-0.898606,3.36981,-7.973126,0.910278,3.92708,-9.136749
15.391469,-0.464641,2.958591,-5.317861,2.408354,3.408417,-8.663129
15.424807,1.021313,5.154002,-8.015774,-2.423318,4.223971,-9.042774
15.45804,-0.051028,4.326926,-7.119413,1.037475,4.442301,-8.705778
15.491491,0.380991,12.785643,17.519149,1.674505,4.778099,-9.07345
15.524809,2.739513,8.30264,-30.348338,-0.951729,4.382294,-10.00004
15.558118,-0.994976,-0.62431,-14.999461,0.165505,3.993671,-10.616569
15.591472,0.346124,3.363225,-10.979004,-0.401193,3.000042,-10.104041
15.624805,0.617726,3.634827,-10.138609,-1.172752,4.919213,-10.433555
15.658135,0.043546,2.399525,-8.739896,-1.256253,2.37618,-13.267493
15.691472,1.409487,4.118324,-9.830793,-2.408653,-1.213904,-13.176361
15.724804,0.27654,3.556863,-9.147075,-2.489909,-1.442708,-10.794195
15.758155,0.541707,2.73667,-8.789428,-3.261019,-2.42676,-11.131041
15.791493,-0.690602,3.273888,-9.549914,-4.306125,-1.958976,-12.056283
15.824822,0.798944,3.706656,-9.694918,-3.364123,1.272264,-11.399351
15.858136,1.203429,3.297532,-9.125825,-3.935161,3.594873,-10.266404
15.89147,0.374556,3.833104,-9.67277,-4.037965,5.436528,-11.383938
15.924816,0.430822,3.432061,-9.04846,-4.694748,1.331523,-7.505791
15.95812,0.878105,4.205116,-9.622191,1.713561,12.914336,-14.492321
15.991437,0.857304,3.477253,-9.207531,4.91173,6.943433,0.993629
16.024818,1.233956,3.958505,-9.927313,5.091003,30.557688,-2.31782
16.058003,1.067553,4.515177,-9.753578,12.681791,-2.341613,-21.269201
16.091439,0.681025,3.2691,-10.641858,-8.21884,5.438773,-16.810739
16.124819,1.33706,2.628478,-12.817667,-2.058339,1.021912,-8.070244
16.158158,1.387639,1.025952,-13.536851,1.347834,3.736584,-8.526505
16.191467,-0.242122,2.850249,-10.048524,1.366689,4.054426,-8.75501
16.224802,-0.008829,-0.634636,-6.998651,-0.183013,4.14496,-8.610006
16.258154,1.523814,3.878446,-9.461175,0.312305,4.479562,-8.583819
16.29083,2.309889,2.938539,-7.857452,-0.076468,4.322885,-8.710566
16.324791,1.207619,3.03027,-7.795799,-0.174933,4.298643,-8.798856
16.357071,0.603211,3.40752,-9.769889,0.263521,4.407134,-8.845844
16.391469,-0.178524,5.138739,-10.572873,0.059259,4.46355,-8.620332
16.424809,-1.969301,4.55588,-7.724569,-0.091432,4.4634,-8.656545
16.458136,-0.742977,5.127216,-9.15321,-0.05447,4.323933,-8.863801
16.491474,1.838214,6.376885,-12.550853,0.421843,4.407434,-8.736455
16.524806,1.814421,4.455918,-9.344603,0.072726,4.19928,-8.597137
16.558064,-0.195434,3.957308,-8.559876,-0.11298,4.439607,-8.666272
16.591471,-1.841356,4.4004,-13.269439,-0.062551,4.311962,-8.696051
16.62472,-2.270532,3.080849,-7.389069,0.268759,4.510538,-8.712063
16.658109,-0.069734,3.768608,-9.862368,-0.627004,4.377804,-8.817112
16.691473,1.301744,3.857646,-11.229506,0.189897,4.715997,-8.709968
16.724791,1.022211,3.093868,-7.454613,0.095323,4.529991,-8.859611
16.75804,0.348219,4.037067,-9.652269,0.130489,4.295351,-8.810079
16.791477,-1.103168,3.8557,-6.79379,-0.140814,4.526998,-8.902708
16.824798,-1.205973,6.729144,-5.446405,-0.210847,4.73575,-8.604021
16.858223,-1.413078,4.614988,-3.765166,-0.42334,4.989245,-8.374917
16.891455,0.616679,12.72414,-3.563896,-0.642417,5.125869,-8.29815
16.924803,3.741972,9.940182,-19.658145,-0.089486,5.485312,-8.072788
16.958061,-0.224614,-3.623454,-4.738893,-0.697935,5.080977,-8.75516
16.991456,-6.112914,20.812491,-31.270887,-1.224528,4.838854,-10.379684
17.024803,6.104235,-2.140493,-7.156824,-1.467249,6.003376,-9.724996
17.05814,0.47347,3.842981,-9.904418,-3.39914,7.970881,-12.619839
17.09147,-1.193103,1.884603,-8.313414,-4.965752,-4.244921,-22.479812
17.124612,1.636346,3.345118,-9.56413,-2.147077,-10.173925,-18.632492
17.158062,0.844286,3.958655,-9.862518,-1.501068,-4.415365,-12.89997
17.191458,0.917461,3.381781,-9.001023,-2.392342,1.044358,-10.111823
17.224791,0.891722,3.538008,-9.215761,-0.902946,2.701055,-11.910531
17.258133,0.189897,3.829662,-9.424363,-1.888045,5.140086,-12.860464
17.291508,1.434328,3.402132,-9.145429,0.001048,5.334921,-11.979068
17.324801,0.394309,3.077108,-8.971993,-2.325601,1.404998,-5.56133
17.358044,0.356749,3.704262,-9.257661,2.35134,8.42834,-0.895014
17.391517,0.292253,3.917353,-9.302554,6.829704,22.755754,-0.013019
17.424807,1.271067,2.949911,-9.334128,10.180958,46.936857,-4.151095
17.458123,0.082154,5.966564,-10.994417,18.133583,41.68409,10.677772
17.491469,2.867309,1.983817,-12.825298,-2.119393,-7.168346,-0.065244
17.524803,1.166317,0.56565,-7.152035,-1.874278,11.470282,-8.915727
17.558135,5.365747,-0.357198,-16.814031,3.135618,4.812966,-9.418078
17.591513,3.08459,-3.047179,-8.95643,-0.449527,3.923788,-9.563232
17.623792,-2.689233,-0.227158,-12.488302,0.841442,3.558809,-9.081382
17.658139,-1.920069,2.125229,-10.386867,-0.681923,3.960301,-8.923807
17.691453,0.256338,3.247252,-8.412478,0.273847,3.731945,-8.939071
17.724809,2.488413,4.154836,-10.093117,0.244217,3.588139,-9.397577
17.758125,-0.826328,4.860852,-7.993328,0.061952,3.508828,-8.884152
17.791469,-2.651074,5.227926,-9.125377,0.925841,3.772499,-9.119989
17.824804,-2.147676,5.785645,-10.120652,0.888879,3.636773,-8.993391
17.858119,-0.245115,4.774059,-8.052437,0.155329,3.356641,-9.067016
17.891365,-0.522254,5.485611,-9.406705,0.224015,3.645003,-8.993242
17.924791,-1.1316,4.7986,-8.585165,0.287015,3.606694,-9.138545
17.958135,-0.532579,4.020008,-8.136386,-0.207704,3.622706,-9.247186
17.991467,0.070781,4.332313,-10.236176,0.481252,3.691542,-9.00641
18.024778,-0.836205,3.254584,-7.873015,0.496964,3.624352,-9.075545
18.058135,0.02499,3.053764,-8.552094,0.284322,3.73,-8.961218
18.091457,-0.556672,2.097396,-8.419211,0.350913,3.846422,-8.984563
18.124811,-0.688208,1.86919,-8.044805,0.077814,3.674034,-9.113405
18.158154,0.201868,3.094766,-10.017548,0.809269,3.589036,-9.131362
18.19147,1.018769,-0.874663,-8.333915,0.376801,3.743618,-9.166528
18.224715,2.069412,1.2992,-14.323823,1.037923,3.345717,-9.196457
18.257776,1.105263,-1.534888,-8.647567,-0.811813,4.125207,-9.307642
18.290786,2.346551,-0.291654,-6.71418,1.08955,3.661613,-9.594657
18.324858,1.539527,6.322115,-15.139377,0.125999,3.960301,-9.601989
18.358129,0.671747,4.517272,-5.542475,-0.900851,3.58769,-9.553206
18.391469,-0.057463,22.027442,12.862859,1.092543,4.025695,-10.048075
18.424763,0.020651,4.954977,-30.770331,1.206272,1.930544,-10.016351
18.458131,-1.213305,-2.111163,5.650368,-1.937128,8.871432,-8.229764
18.491461,-0.927637,15.380003,-16.118491,-3.650839,4.018362,-11.613191
18.524787,1.566612,1.168262,-7.280578,-9.173861,4.93268,-12.978233
18.557985,0.933922,4.48854,-12.354372,-8.087303,-9.32096,-12.93798
18.591204,1.967655,3.982747,-9.228181,-1.65535,-4.683525,-9.742205
18.624812,0.501005,3.445978,-8.554189,-6.103337,2.636858,-9.915791
18.658139,0.701526,2.866261,-8.98995,-2.966971,4.763285,-9.33353
18.691454,0.742828,4.138226,-8.998629,-2.491256,6.854694,-10.783869
18.724807,1.731967,3.190687,-8.715205,-5.652613,4.809824,-11.351016
18.757487,1.318953,3.877398,-9.358071,-3.775641,4.186411,-12.233461
18.791467,0.98929,3.740774,-9.195709,2.77887,-0.416456,-12.306935
18.824799,0.212643,3.815446,-8.803195,1.767283,-3.911068,-7.500853
18.858122,0.951131,3.670891,-9.116697,9.9749,16.538987,7.575973
18.891461,0.8172,4.194791,-8.919917,27.681252,68.464641,-17.080396
18.9248,1.914981,3.324019,-9.364955,26.676698,30.679947,12.026205
18.958115,0.387426,4.370771,-8.415919,-4.990293,-10.511519,2.621595
18.99146,0.294647,2.42676,-7.942748,-3.445529,3.770553,-9.361064
19.024805,0.972081,3.792401,-10.680466,5.425155,4.4004,-7.656631
19.058118,2.026016,2.433793,-10.478149,-3.214031,4.332912,-9.896936
19.091463,-1.082367,1.845846,-11.041106,1.910192,3.430565,-9.061778
19.124783,0.984351,4.084205,-12.83293,-0.665761,4.390225,-9.125975
19.158123,1.109752,1.133396,-7.750457,0.72921,4.475072,-8.9898
19.191461,0.005387,3.290349,-8.884601,-0.017658,4.208858,-8.7803
19.224775,0.668605,3.101051,-8.330473,0.047736,4.16187,-8.759051
19.257321,2.137799,5.652762,-11.461902,-0.659327,4.258689,-8.739447
19.291429,2.105776,4.648658,-10.798983,0.052375,4.31241,-8.738998
19.324516,-0.415558,3.023087,-7.658576,0.350613,4.324232,-8.821003
19.358139,-0.769015,3.611034,-9.067914,-0.058061,4.153639,-8.79691
19.391325,-0.131536,5.467654,-11.984904,-0.210248,4.359847,-8.645172
19.424618,0.015264,3.031018,-7.591087,0.000748,4.405788,-8.780898
19.458042,1.115588,3.228397,-7.405829,0.321433,4.333211,-8.933983
19.491355,0.955171,4.411324,-13.52054,0.055518,4.345781,-8.798107
19.524624,-0.140215,2.330839,-10.454505,-0.115973,4.307323,-8.635146
19.558043,-1.412929,1.693509,-9.138096,-0.007931,4.219931,-8.78449
19.591368,-1.081021,2.875389,-9.717813,0.099064,4.208259,-8.99384
19.624983,-1.087605,3.357389,-9.908009,0.379195,4.526998,-8.721041
19.658118,0.119116,3.69648,-7.520905,-0.060306,4.737097,-8.81382
19.690466,-0.640771,4.156034,-8.469043,-0.226709,4.750415,-8.995636
19.724762,-1.277801,4.821496,-5.151608,0.027983,4.327075,-9.039781
19.757119,0.436209,5.184679,-6.75593,0.782932,4.50949,-8.862454
19.791453,-0.143358,12.595746,1.095985,0.271901,4.758197,-8.897321
19.824784,1.016824,7.416304,-19.065858,-0.262923,4.564559,-8.599382
19.858135,9.722901,-3.401983,-5.086214,-0.074073,3.80557,-8.912734
19.891475,-1.047351,7.060005,-24.439686,0.508487,7.475264,-9.129716
19.924717,-1.832079,4.011778,-18.538816,-0.535273,6.796483,-8.590403
19.958139,2.196609,-3.376693,-4.243425,-4.123411,6.6428,-12.08711
19.99145,-1.455876,8.532342,-10.842679,-4.311962,2.616507,-23.184631
20.024802,1.68902,3.387168,-7.701075,-7.228652,-5.315766,-12.354971
20.058125,0.686412,3.91451,-9.951555,-2.386057,-5.083371,-12.181684
20.091449,0.760037,4.179378,-9.76914,-1.197443,-4.578925,-13.497345
20.124805,0.230899,3.515861,-8.845993,-0.751657,-3.860638,-13.549271
20.158108,1.038522,4.097972,-9.546921,-4.164563,2.226388,-14.23703
20.191462,1.141027,4.149898,-9.456087,-3.664905,4.110392,-12.456877
20.224805,1.527256,3.658471,-8.944458,-3.636922,3.873957,-4.11563
20.258113,0.910428,4.784384,-9.288487,20.36027,50.110485,23.555147
20.29146,0.704968,2.693274,-9.557545,12.084865,27.03629,-6.676919
20.324802,-0.488884,0.984202,-11.055621,20.235467,23.635954,3.32342
20.358108,4.345631,3.842382,-17.12469,-4.106053,1.145367,-4.977124
20.391469,-5.522872,6.317776,-13.902728,-3.384026,3.563597,-8.844796
20.4248,-0.12989,-2.463123,-5.424557,4.431227,4.088395,-8.756357
20.457971,7.593482,1.903009,-12.735213,-1.558531,5.20548,-8.794965
20.491468,7.93377,1.844349,-7.902494,0.780089,4.562464,-8.274058
20.524782,2.447261,4.36688,-8.456772,1.352772,4.289066,-8.555835
20.558123,-3.699024,5.058231,-10.21343,0.684317,4.648658,-8.978128
20.591472,-4.350569,8.227519,-12.586319,-0.202766,4.831671,-8.469342
20.624778,-1.740497,4.386783,-8.402451,-0.084848,5.059877,-8.224227
20.658135,1.526508,3.00064,-8.459316,0.556672,4.629055,-8.333915
20.691459,1.344243,4.826733,-13.383616,0.844435,4.843643,-8.63365
20.724802,-1.449442,4.52625,-9.19945,0.238232,4.73994,-8.652206
20.758141,-3.704411,3.992474,-8.435672,-0.007482,5.19291,-8.393024
20.791469,-2.725447,2.956196,-8.919468,0.488285,4.858009,-8.673754
20.82479,-0.088738,4.928939,-14.661268,0.741481,5.091003,-8.538028
20.858133,0.347321,0.723524,-7.613683,0.354205,5.131257,-8.468444
20.891489,-1.925306,2.036641,-8.909142,0.449228,5.793726,-8.039268
20.924801,-1.220787,0.561311,-9.591514,1.044208,5.725788,-7.776944
20.958141,2.217708,-1.296806,-5.922419,1.809034,5.609067,-8.205821
20.991416,0.656184,1.577686,-6.133715,0.814806,5.726087,-7.98375
21.024802,-2.255867,4.652998,-3.464384,1.813523,6.426416,-7.2297
21.05812,-3.77175,12.021267,2.74535,1.73526,6.565285,-7.128092
21.091468,2.762708,-13.81803,-9.12388,2.16249,5.636451,-7.741179
21.124803,32.459201,35.598261,-16.746841,3.16001,5.512547,-7.713495
21.158114,-25.277088,-5.578689,1.357411,-1.695904,8.467247,-11.930284
21.19147,-2.373337,8.13055,-25.04978,-1.049147,5.542326,-14.519107
21.224785,15.686023,10.533068,-6.735579,0.570289,6.974708,-16.259604
21.258137,0.521356,3.507182,-11.92789,-0.035765,0.287015,-13.584287
21.29145,-4.568898,1.683633,-7.270103,-4.512483,-4.159625,-11.29894
21.324805,-1.569904,1.842554,-8.727027,2.088716,-0.301231,-10.341375
21.358114,4.485398,3.69214,-7.863288,-1.221535,2.391893,-7.985097
21.391468,-0.272649,3.169737,-9.017634,-1.180533,2.778121,-10.823525
21.424807,-0.324576,5.064366,-11.515474,-2.004767,5.274615,-11.488837
21.458126,1.83148,2.441724,-8.646369,-0.076468,6.065478,-10.78776
21.491471,1.78943,4.704325,-9.818972,1.610158,4.384089,-5.721299
21.524713,-0.147997,2.982085,-8.941016,1.230664,8.39033,-4.918614
21.557584,0.891273,3.665504,-9.184635,12.699748,21.384127,0.154581
21.591472,0.891722,4.150197,-9.600792,15.273008,17.269395,-3.791653
21.624782,1.331673,3.848368,-8.874725,17.832052,23.685486,3.845973
21.658135,-0.116123,3.456453,-9.448755,2.505173,-4.213646,-8.062612
21.691467,1.335713,3.990678,-8.999078,-2.744302,8.413375,-13.782415
21.724782,2.064624,3.259223,-8.082664,-0.292552,3.19787,-8.323739
21.758125,-1.434627,5.016032,-9.371838,-0.534076,4.559621,-8.950294
21.791469,0.975822,3.286608,-8.32748,0.958014,4.09064,-8.950594
21.824783,0.74582,4.594637,-9.117894,-0.017508,4.351018,-8.523363
21.858125,0.970584,3.962695,-9.387401,0.489482,4.24148,-8.891335
21.891443,1.41218,3.892063,-9.557695,-0.182415,4.506797,-8.658939
21.924786,0.447283,4.673349,-8.86395,-0.303925,4.200478,-8.671958
21.958124,1.884304,3.175124,-13.087622,0.365727,4.10291,-8.894477
21.991396,3.691991,1.749625,-14.77784,1.016375,3.710098,-9.33787
22.024801,-0.472572,-0.775749,-10.215675,0.637928,3.664756,-8.826091
22.058054,-0.890974,0.696887,-10.356639,0.579417,4.103808,-8.945356
22.091509,0.492176,0.920753,-9.305098,0.639125,4.278591,-8.722837
22.12478,0.162363,2.323805,-10.415149,1.360703,3.795993,-9.064622
22.15811,0.144555,3.420389,-12.253662,-2.095001,4.522808,-8.889539
22.191498,-0.279383,3.37789,-9.758366,0.885288,3.940697,-9.015688
22.224783,1.361751,2.604984,-6.88178,0.218329,3.623155,-9.166528
22.258031,1.506605,2.792487,-9.427057,-0.146949,3.766962,-9.116847
22.290581,1.031788,10.534415,-18.58296,0.44025,3.870365,-8.929494
22.32479,-3.35694,2.882422,-5.528409,0.11313,3.794795,-8.96032
22.357441,-4.392918,6.413098,-8.601028,0.242122,3.98574,-8.96466
22.391446,-1.830283,4.770019,-7.354652,0.719932,3.833703,-8.917672
22.424807,0.06704,5.552801,-6.400079,-0.227457,4.141219,-9.157699
22.458113,0.710654,3.489823,-3.722668,0.115075,4.091837,-8.934582
22.491609,2.3678,4.503953,-4.317947,0.124353,4.461754,-8.894926
22.524779,-0.407627,7.709006,-7.649747,0.593185,4.172045,-9.265742
22.558141,-3.336289,9.963976,7.582258,-0.49023,4.367778,-9.678008
22.591441,-9.917886,-2.25467,-20.996103,-0.327718,4.064003,-9.585529
22.624399,15.815913,5.340308,-5.8675,0.249455,4.547799,-9.410596
22.658107,-13.467267,16.26529,-11.264522,-1.152101,2.264098,-10.640062
22.691468,0.018556,7.176128,-8.361749,-0.429924,7.608895,-9.48003
22.724799,1.04376,3.884881,-10.64111,-2.174013,6.234574,-10.187542
22.758135,0.406131,2.796827,-8.018019,-0.718137,3.722967,-19.986462
22.791468,0.677434,3.399738,-8.881309,-4.068941,-8.394221,-10.310698
22.8248,1.397964,3.423831,-8.93099,-3.031168,-1.278849,-12.694959
22.858135,0.508786,3.277031,-9.221298,0.437107,1.006498,-11.163962
22.891452,0.727115,3.61672,-9.24958,-0.540061,2.487365,-10.455553
22.924792,0.893219,3.654879,-9.382463,-1.682735,3.466329,-10.254133
22.958134,0.484245,3.583949,-9.138545,-3.806318,3.446576,-9.958588
22.991453,0.705566,3.347662,-9.473296,-2.213369,4.215292,-11.890778
23.024801,0.811813,3.410512,-9.411943,-0.704369,3.066783,-9.711827
23.058113,0.478558,3.604899,-9.201994,0.597225,5.290776,-7.587646
23.091469,-0.33954,3.466778,-9.343257,-4.3585,10.441337,1.226773
23.12478,0.59109,3.329855,-8.863501,8.522166,47.368427,-15.239189
23.158121,1.473684,3.414403,-9.475691,31.167334,47.935724,5.672665
23.191472,-0.615182,4.721085,-9.974151,-4.6102,-12.606071,-4.980566
23.22475,1.822352,2.949762,-8.38195,-2.007909,11.92774,-15.122767
23.258136,-0.021249,4.851873,-9.197355,2.670528,4.369275,-8.022508
23.291469,0.903245,4.695347,-9.92851,-2.740112,4.185813,-9.162189
23.32479,1.706079,4.01926,-9.129716,0.999166,3.181708,-9.536446
23.358126,0.606503,3.269399,-10.282266,0.640921,3.346016,-9.167426
23.391458,1.339155,1.870836,-10.677623,0.130938,3.721022,-8.987256
23.42479,2.681452,1.70578,-12.072295,0.336547,3.629889,-9.133757
23.458125,1.500021,2.295224,-10.867071,0.324276,3.674632,-9.177303
23.49147,-0.078114,1.422057,-9.138246,0.462696,3.727456,-9.053997
23.524782,0.063449,1.844649,-8.839858,0.524349,3.659219,-9.062975
23.558125,1.283936,2.077792,-9.332033,0.302578,3.644554,-8.926351
23.59146,1.276903,4.226964,-10.683309,0.547992,3.536661,-9.150666
23.624792,-0.726068,2.902624,-9.118792,0.626106,3.608789,-8.893131
23.658158,-0.984202,5.974794,-10.105837,-0.84249,3.93965,-8.880112
23.691115,0.56161,4.449783,-9.868653,0.349117,3.654281,-9.072852
23.724804,0.839497,3.299028,-8.407539,-0.34358,3.691093,-8.966755
23.75818,-0.322181,2.258561,-7.814654,-0.135726,3.668796,-9.00641
23.791502,-0.891573,6.719717,-14.350759,0.261127,3.724912,-9.044569
23.824795,-1.123819,1.966159,-7.687158,0.056415,3.657723,-9.189274
23.858138,0.309013,3.068878,-8.327331,0.315896,3.766363,-9.104875
23.891471,1.06037,5.41917,-12.073642,0.373359,3.681216,-9.050854
23.924803,0.743576,3.746012,-6.688591,0.479905,3.632134,-9.096944
23.958135,0.172239,3.80542,-5.756615,-0.527641,3.721171,-9.060581
23.991448,-0.690901,5.467355,-9.585978,0.368271,3.612979,-9.105923
24.024803,-1.149557,7.477209,-9.406406,0.588695,3.748406,-9.215013
24.058117,-1.432831,2.446213,-5.476483,0.118966,4.190152,-9.26649
24.091471,-3.987835,4.25809,-6.715078,0.442793,4.000704,-9.792186
24.124784,-3.578861,13.772538,15.483107,-0.023494,4.382443,-10.590231
24.158134,10.532469,8.670761,-1.713412,2.477189,1.874428,-11.582963
24.190972,-12.100578,15.762939,-31.858385,-1.048847,6.841975,-9.71497
24.224788,1.362349,3.997412,-7.995423,1.285283,4.030483,-11.375109
24.258137,1.904955,4.507694,-10.743466,-4.724078,-5.237204,-17.054058
24.291409,0.745671,2.861173,-8.514085,-2.581341,-3.812453,-11.29086
24.324802,1.253409,2.786651,-8.826839,-2.676364,-3.422035,-9.737267
24.358134,0.266065,3.379387,-9.623837,-5.031445,0.257984,-11.486892
24.391445,0.979862,3.378638,-9.206483,-7.305419,0.060007,-11.864291
24.424807,1.160182,3.198618,-9.085123,-5.232864,-2.48527,-13.164389
24.458119,0.566698,3.05526,-9.590766,-2.708537,-0.653341,-14.04833
24.49147,0.55757,3.404826,-9.431247,-1.875176,1.479969,-12.355868
24.524805,0.797447,3.299178,-9.34595,-0.943948,1.095985,-5.639893
24.558038,0.346274,3.278378,-9.476589,11.706119,35.370056,-17.282264
24.591468,0.169695,3.441189,-9.426009,12.198743,41.310133,13.761764
24.624801,1.318803,3.86827,-9.608723,20.997898,42.263059,12.696905
24.658017,0.53213,3.935759,-9.198103,-4.629504,-2.895142,-0.959511
24.690739,1.383898,3.802427,-10.041191,-6.641902,5.185128,-8.965408
24.724808,1.974239,3.225554,-11.588051,5.681194,5.000618,-8.501665
24.758153,0.42319,3.7511,-9.943175,-2.761511,4.841997,-7.911473
24.79147,1.907798,0.80897,-10.453458,0.933922,4.11997,-8.812174
24.824488,1.591153,2.763157,-9.461624,-0.055368,3.919897,-8.836416
24.857903,0.605755,2.056543,-9.858627,0.865086,4.056521,-8.990698
24.891474,-0.138719,2.684594,-10.042239,0.065843,4.292209,-8.821152
24.92478,-0.250652,3.684209,-9.411793,0.380542,4.008785,-8.966007
24.95808,0.59917,3.669844,-9.027061,0.369768,4.197634,-8.938622
24.991364,0.630446,2.7452,-7.155776,-0.161165,4.188805,-8.720592
25.024808,1.452135,6.080741,-12.285536,0.022446,4.282482,-8.800951
25.058445,-0.251101,5.802405,-11.095576,0.027385,4.24133,-8.77177
25.091476,-1.103916,4.346679,-8.44076,-0.160717,4.242228,-8.875622
25.124801,0.091881,4.4426,-9.293874,0.204113,4.221577,-8.920216
25.158484,0.738787,3.940997,-10.528429,0.328915,4.184915,-8.923209
25.190567,0.111933,3.223908,-9.836031,-0.297939,4.12835,-8.814568
25.224791,-0.770811,2.230278,-9.815829,0.25978,4.318995,-8.864998
25.258046,-2.427209,2.710782,-10.395247,0.078862,4.306425,-8.699193
25.291396,-3.662661,4.59763,-9.091707,0.327119,4.327225,-9.077192
25.324227,-0.825281,6.227092,-7.57762,0.070482,4.133587,-8.928446
25.358203,1.196844,5.312025,-6.520242,-0.062401,4.001452,-8.936377
25.391398,0.409273,5.382806,-3.918251,-0.010325,4.355208,-9.348793
25.424748,-2.313779,6.856939,-8.009339,0.363183,4.123411,-9.243594
25.458037,-1.158536,4.299541,-3.286009,0.060007,4.733805,-9.169372
25.490752,-1.138484,11.014469,13.918739,-0.525097,4.213048,-9.128669
25.523985,7.69494,17.330898,-12.713814,0.769165,7.119562,-9.578645
25.558144,-5.12138,0.621916,-14.113874,0.045342,7.001345,-10.048524
25.59146,0.680277,2.361066,-10.915555,-3.661913,4.528345,-11.670803
25.624804,0.388772,3.138013,-8.292165,-6.903478,-0.413463,-25.890624
25.658139,2.320214,4.147654,-9.733974,-5.277458,-5.303047,-14.435905
25.691364,0.948736,3.628991,-9.286692,1.319851,-2.453246,-12.145171
25.724872,-0.234939,3.301872,-9.214713,0.338941,-4.210653,-12.152803
25.758125,1.036577,3.438645,-9.080933,-3.516759,-0.618774,-11.368824
25.791463,0.739535,3.561053,-8.920216,-2.33039,3.410363,-11.044547
25.824797,1.066655,3.38642,-8.764587,-0.663367,8.267922,-14.088135
25.858059,0.682671,3.642908,-9.201395,1.010838,5.920922,-8.174545
25.891325,0.336547,3.720722,-9.289086,-1.240989,5.086064,-6.098249
25.92473,-0.096969,3.38223,-9.40895,6.061886,18.819696,-8.652954
25.958041,-0.687759,3.961498,-9.877332,7.022295,24.483232,4.638033
25.991184,1.89852,3.054661,-9.608125,23.5327,43.717738,13.267344
26.024573,0.299286,5.932295,-9.141538,3.292145,-8.724782,-26.394472
26.057982,0.634037,1.309376,-12.586319,-2.555303,9.75268,-10.616269
26.091204,0.355701,3.127388,-11.89018,2.764504,3.654281,-7.947986
26.124599,2.601543,2.979541,-12.258601,-1.337209,4.280387,-8.173947
26.157913,4.231154,1.807986,-12.938129,1.331822,4.223822,-8.625868
26.190999,0.451622,-1.25715,-10.004978,0.131387,4.249111,-8.428639
26.224806,0.134529,1.303091,-11.516521,0.121211,3.757235,-9.091557
26.258137,-1.449442,1.556436,-9.246887,0.591688,3.805719,-9.14468
26.291465,-1.189811,2.518491,-9.59331,0.483796,4.045447,-8.83896
26.324804,1.350528,4.751313,-10.456451,-0.183313,4.015668,-8.94356
26.35814,1.12726,3.240518,-9.340713,0.921651,4.030333,-9.007608
26.391463,-1.126811,4.610948,-9.066717,0.318291,4.170399,-8.793468
26.424822,-1.018919,5.459573,-11.947643,-0.077515,3.825921,-8.719844
26.457424,-0.751657,4.525801,-9.669927,0.770063,3.935161,-8.950145
26.491472,-0.729958,3.477403,-7.335946,0.217282,4.069241,-8.864699
26.524772,-0.744474,3.48294,-11.776002,0.210997,3.835947,-8.941615
26.558142,0.412865,10.083989,-11.893921,0.372162,3.778035,-9.11116
26.591258,-2.349095,3.716832,-7.093674,-0.04624,4.059065,-9.071954
26.624713,-5.591708,5.128264,-8.262835,0.895014,3.936507,-9.015838
26.658109,-2.812539,6.189083,-9.73996,0.576275,3.977659,-8.803943
26.691469,3.927828,3.761724,-6.145088,-0.63269,4.328572,-8.917672
26.723884,3.765316,3.574072,-5.643933,0.683868,4.418807,-8.9479
26.758134,-0.293599,3.056308,-8.785687,0.15922,4.499913,-8.961966
26.791469,-2.884069,2.966671,-6.569026,-0.118966,4.005044,-9.068363
26.824772,-1.650861,5.710375,-2.835584,-0.329963,4.094381,-9.323504
26.858139,-1.997135,8.911836,-0.985548,0.986297,4.213796,-8.917223
26.890482,6.958696,4.84888,-9.144531,0.03771,4.825386,-9.162338
26.924801,1.635597,3.611184,-5.143078,-0.211894,3.840287,-9.598548
26.95722,-14.743272,18.449479,-21.541102,-0.397302,6.473554,-9.504422
26.991482,2.9758,1.659391,-6.931761,-1.971097,7.88334,-10.126039
27.024801,-0.048634,4.306874,-11.196136,-2.738466,4.021953,-26.974039
27.057863,0.669353,3.321176,-9.37947,-5.005856,-16.660198,-16.430047
27.091473,0.689405,2.977595,-8.752167,-5.177945,-4.993585,-14.403283
27.12478,0.798944,3.224955,-9.084374,-5.873037,-0.000449,-9.50113
27.157583,0.159519,3.548483,-9.702549,-4.317349,4.641625,-10.964189
27.191459,0.685664,3.353349,-9.157849,-2.622343,5.289579,-12.053739
27.22481,0.301381,3.179314,-9.029156,-2.627431,4.803688,-11.862645
27.258139,1.339753,3.054213,-9.085272,-2.600196,2.128222,-11.529091
27.291462,0.392663,3.922291,-9.673818,-2.210675,-1.176044,-2.195561
27.324705,0.347022,3.67149,-9.782159,-4.792764,12.504314,-2.846957
27.358138,0.602163,4.683824,-9.65182,10.474557,36.423841,20.994307
27.39145,2.461028,0.901449,-10.105239,31.845665,41.091804,6.160351
27.424718,2.142288,-0.840395,-11.004443,-5.442813,-3.570032,-2.187331
27.457075,1.821903,4.865491,-15.761443,-0.685963,3.207148,-11.197931
27.491483,5.011692,1.515733,-14.256334,2.520735,3.437298,-9.430349
27.524699,0.120163,0.522404,-9.254369,-1.326734,4.135981,-8.519173
27.557866,-1.71431,0.609047,-7.750158,0.991983,4.190601,-8.692759
27.591433,0.440698,2.090213,-7.293897,0.849822,4.430479,-8.710417
27.624763,2.699708,4.538371,-8.760996,0.592885,4.919063,-8.712212
27.658122,1.392428,5.379065,-8.908843,-0.010924,4.156034,-8.491489
27.691267,-1.097481,6.464276,-9.32919,-1.035529,4.853669,-8.41143
27.724597,-2.238808,7.239726,-10.860935,-0.278336,5.167919,-7.999613
27.757984,-2.505023,5.013188,-9.076144,-0.484694,4.850078,-8.11379
27.791307,-0.879152,5.214757,-10.781774,-0.575826,4.967697,-8.463057
27.825113,-0.409722,4.250458,-9.009254,0.546197,4.932531,-8.642329
27.857974,-1.964363,2.717965,-7.695089,0.521057,5.097288,-8.439563
27.891321,-2.22115,4.964554,-13.917093,-0.389072,5.348089,-8.231559
27.924801,-0.542156,4.781092,-9.959037,-0.709008,5.179292,-8.048546
27.95805,-0.81301,4.432574,-7.361685,-0.116422,5.484564,-8.051988
27.991409,0.007632,4.519816,-5.45239,-0.084399,5.200092,-8.392126
28.024826,0.441746,5.775918,-7.450722,-0.077365,5.105668,-8.374019
28.057772,-0.447133,3.372802,-4.02779,0.140365,5.179142,-8.426245
28.091318,-2.398328,5.816472,-7.047884,-0.055069,5.100131,-8.769226
28.124652,-0.349416,16.990311,15.423399,-0.451922,5.107912,-8.371176
28.157951,8.047049,11.670204,-34.369094,-0.7961,5.230171,-8.425347
28.191324,2.167877,-0.235688,-6.959445,-1.146714,4.641326,-10.071719
28.224691,-11.42494,8.50376,-19.786988,0.294946,4.167556,-10.393002
28.257991,8.936976,-1.73077,-7.565798,0.442644,4.560818,-9.63955
28.29132,-0.050729,4.958718,-11.768221,-3.711145,5.40241,-9.794729
28.324651,1.867095,2.180896,-8.249067,-0.604707,2.432596,-21.783973
28.358006,-1.382701,0.971482,-7.046088,-5.298707,-7.601413,-12.883809
28.391312,-1.587412,-0.482,-11.341738,-6.032706,-1.587263,-7.583755
28.42446,2.59017,7.469727,-13.50378,-4.785432,2.320663,-11.523405
28.457337,2.090362,2.891551,-7.526891,-7.153232,0.044444,-10.295584
28.490644,2.307195,3.690943,-9.245689,-5.525117,2.87509,-11.972783
28.524002,0.914318,3.683311,-8.766533,-4.205416,5.373379,-9.4507
28.55727,2.010603,4.318247,-9.258259,-3.783423,3.747359,-8.200284
28.591142,1.886998,4.012077,-8.450786,1.843152,13.253876,-12.111502
28.624008,0.274296,4.322437,-9.227882,1.110051,12.080825,-0.024392
28.657344,1.082517,3.377741,-8.419361,10.259371,16.33682,2.51894
28.691483,1.170208,3.492217,-9.359268,13.39035,34.561685,9.573108
28.724714,0.420796,4.767175,-9.554403,-2.65287,-2.33443,-21.168042
28.758104,1.141776,3.796442,-8.585914,1.198041,10.4566,-9.66888
28.79146,1.024605,4.525801,-9.083177,3.374897,2.941232,-6.460834
28.824781,1.069199,3.925434,-8.675699,-0.610394,4.688762,-8.234103
28.858137,1.061866,3.988882,-8.774613,0.989589,4.308819,-8.364293
28.891486,1.201184,3.292294,-9.645835,-0.569541,4.324532,-8.619134
28.924796,1.414126,4.432125,-10.753791,1.222284,3.964491,-9.055044
28.958137,1.359207,4.179079,-11.191497,-0.027983,4.060711,-9.035591
28.991457,0.671298,0.605455,-11.107248,-0.258583,3.838491,-9.230127
29.02481,0.613087,4.179378,-11.726021,1.061417,3.839988,-9.167426
29.058141,0.42738,1.441361,-9.904567,-1.557334,4.400849,-8.911088
29.091457,-0.348369,1.878468,-10.28915,0.415858,3.881139,-9.019878
29.124794,-0.533028,1.913185,-9.33338,0.438454,3.954315,-8.912734
29.158097,-0.319039,2.353734,-9.384558,-0.146351,4.038414,-8.987406
29.191444,-0.252597,2.892598,-10.242611,0.207704,3.980951,-8.91857
29.224803,-1.266578,7.107591,-11.077768,0.342084,3.99427,-9.092305
29.257801,-0.29345,4.43407,-8.711315,0.362735,4.005942,-8.985011
29.291483,-0.461499,4.400999,-7.852364,-0.211894,4.163516,-8.893729
29.324804,-0.8383,4.864593,-10.811104,0.465838,4.000106,-9.016137
29.358122,-1.321946,4.34174,-10.069175,-0.107144,4.102162,-8.977679
29.390487,-1.421907,3.384175,-10.746459,-0.030378,3.930372,-8.697697
29.424808,-0.178225,1.205524,-9.311682,0.277588,4.150197,-8.712063
29.458137,-0.820492,3.082645,-7.600964,0.095921,3.988583,-8.984563
29.491507,-2.133759,3.553272,-7.670847,0.450725,4.27485,-8.698445
29.524804,0.056415,3.826221,-9.993605,0.337295,4.346828,-8.843
29.558141,1.751271,4.587753,-5.587518,0.675488,4.372717,-8.877418
29.591469,0.728163,5.561181,-7.344326,-0.34358,4.391721,-8.918271
29.624807,-3.295736,10.001536,-5.03339,0.059708,4.447089,-9.184635
29.658144,-1.710269,10.516906,9.718412,-0.017359,4.271857,-9.527018
29.69147,14.813904,14.264714,-28.295536,-0.495917,3.938602,-9.885114
29.724797,4.501709,0.145303,-8.308176,-0.556522,3.672986,-10.090274
29.758141,-14.519556,4.189404,-29.208657,-1.113942,3.913313,-9.46357
29.791473,4.483752,-0.569242,-1.113643,-0.723973,7.188099,-8.661184
29.82476,2.691029,4.368227,-8.107206,-2.655863,6.215569,-9.818223
29.858134,-2.554405,4.947345,-11.048737,-3.722817,5.245434,-19.817215
29.891533,2.32171,3.764268,-9.236861,-3.927229,-8.471138,-9.986572
29.924786,1.286929,3.249946,-9.021674,-3.33599,1.196246,-10.384023
29.958136,0.930779,3.924536,-9.575652,-0.489781,1.627816,-10.041042
29.991477,1.619885,3.464683,-8.735257,-3.487728,2.104878,-10.088778
30.024743,1.120227,3.475009,-8.83073,-3.936507,4.141668,-10.303067
30.058065,1.322395,3.768608,-9.218155,-4.422099,2.88332,-10.96793
30.091448,1.519474,4.151993,-9.505769,-2.524925,1.966009,-12.327436
30.124788,1.574693,3.825921,-8.946104,-2.692376,0.10894,-10.246801
30.157743,1.082517,3.925883,-9.185533,2.023173,17.180806,-21.079903
30.191049,-0.026337,3.942044,-9.300309,1.272564,5.487856,-1.155842
30.224409,1.463807,5.755717,-9.384558,11.216188,34.937737,4.905296
30.257747,2.251378,3.545191,-8.477572,28.442785,36.729113,8.84719
30.291028,0.028731,2.616357,-10.143996,-0.032921,-8.237096,-6.900336
30.324422,2.031553,4.272456,-9.433192,-2.254221,11.792912,-14.906084
30.357812,3.366966,8.043458,-11.213494,3.418892,4.368826,-9.7651
30.391407,1.347684,3.488925,-11.031678,-1.11065,4.386035,-8.861257
30.424803,1.14851,1.035978,-15.779549,1.266428,3.836845,-9.11954
30.45788,2.237461,6.020435,-12.878871,-0.289709,4.006241,-9.047562
30.491524,-0.5031,0.41062,-6.719567,0.573282,4.117276,-8.853026
30.524785,0.072876,0.559814,-8.674353,-0.084997,4.197485,-8.990997
30.55731,0.941703,6.030461,-14.229997,0.358694,4.143464,-8.728523
30.591413,1.500919,5.455084,-8.006347,0.270255,4.1912,-8.76369
30.624805,0.440698,4.73575,-7.383682,-0.202317,4.20362,-8.719994
30.658117,-0.752704,6.244002,-11.239083,1.290521,3.892812,-8.919318
30.691407,-2.054298,7.20441,-9.642842,0.328616,4.100366,-8.878765
30.724801,-1.117683,4.537324,-7.386825,0.467784,3.842831,-9.079586
30.758124,-1.87757,5.032792,-9.628027,0.074821,4.264674,-8.823098
30.791173,-2.225789,6.313885,-12.669969,0.236585,4.273952,-8.600429
30.82426,-0.84249,4.012526,-8.363395,0.619522,3.802727,-8.95643
30.858122,-1.698298,5.121829,-7.844583,0.132883,3.992474,-9.270081
30.891442,-2.477638,4.515177,-6.918592,0.032772,4.200627,-9.184635
30.924812,-1.009042,5.526763,-7.043095,0.889328,4.208409,-8.953586
30.95804,0.053423,4.513082,-4.938068,-0.165655,3.794047,-8.545809
30.991472,-0.647056,5.090703,-5.181387,0.325473,4.514877,-9.154108
31.024559,-2.085274,4.756551,-6.578154,0.366027,4.197934,-9.366601
31.058139,-1.677797,4.015818,5.638696,0.296892,4.332163,-8.917522
31.091456,11.29505,10.631682,-30.817618,-0.3563,5.149214,-8.700989
31.124804,0.071978,-0.098465,-6.361471,-1.137137,3.688699,-10.197269
31.158135,-5.646627,3.860489,-9.01479,1.484608,4.977124,-8.883853
31.191453,0.18451,12.08711,-5.961476,-0.43576,8.417416,-9.303901
31.2248,1.512142,2.122087,-9.449354,1.16512,8.164669,-13.681855
31.258133,0.015114,2.940783,-11.951234,-5.024112,0.182564,-11.548395
31.291206,0.967442,4.445742,-10.605046,-3.451515,-3.420838,-10.844026
31.324816,2.552759,2.44771,-8.170355,-4.835113,3.19772,-8.515282
31.358124,0.441447,3.793598,-9.588671,-0.914767,1.925605,-9.20349
31.39147,1.356364,4.22472,-9.573258,-0.870473,0.059408,-10.697525
31.424743,0.969686,3.978557,-9.112058,-1.8861,2.51026,-11.611993
31.457835,0.961755,3.612381,-9.574305,-0.941703,3.846422,-13.08882
31.491472,1.976185,3.247551,-8.598035,-1.144619,3.697977,-10.274634
31.524789,0.187054,3.487728,-9.18269,-1.820107,5.364251,-7.864934
31.558136,1.025503,3.816194,-9.125526,7.873464,12.917778,-3.315639
31.591469,1.283188,4.186112,-9.370641,12.891441,27.145979,-1.289024
31.624807,0.972081,3.920496,-9.087667,9.831991,21.088582,0.336996
31.657939,1.106759,3.999956,-9.05265,12.188568,12.453735,-6.850654
31.691462,0.818547,3.948778,-9.295221,-1.876971,0.034717,-5.485611
31.72479,0.592885,4.018811,-9.31258,-3.958954,8.29396,-11.12296
31.758129,0.528689,3.671789,-8.750072,3.520949,4.05712,-9.15321
31.791061,0.664864,3.849116,-8.88939,-1.07279,4.41731,-8.890587
31.824825,0.797896,4.209456,-9.307193,1.016225,4.136281,-8.765785
31.857493,1.486553,4.1912,-9.978641,-0.304374,4.203919,-8.957328
31.891498,2.157402,6.059342,-10.386867,0.36902,4.088395,-8.88939
31.924807,0.871969,4.099469,-11.516372,0.543503,3.83056,-9.062377
31.958101,5.00391,2.300461,-14.990183,0.643465,3.919149,-9.069859
31.991458,4.317349,-0.440549,-13.476545,0.558318,3.975115,-9.017185
32.024809,2.090063,-2.013446,-9.127172,0.133033,3.790456,-9.105175
32.058106,1.232609,0.137223,-11.898859,0.204113,4.017913,-8.995038
32.091469,0.445637,1.792274,-11.248361,0.542306,3.976013,-8.933235
32.124857,0.363932,3.728803,-11.541212,0.5239,4.138675,-8.963613
32.158136,0.12166,2.603488,-10.416945,0.426333,4.167257,-8.895375
32.191473,0.278336,6.247743,-9.816727,0.375005,4.238786,-8.775212
32.224805,2.553507,8.402003,-10.723563,-0.204712,4.274251,-8.646669
32.258137,1.166317,4.942707,-8.393473,0.299286,4.24986,-8.821901
32.29147,-0.316794,4.637435,-7.322179,0.296892,4.344584,-9.114902
32.324816,-2.488413,7.144254,-13.503181,0.145303,3.954764,-9.287141
32.358139,-2.907263,7.402837,-8.080869,0.265018,4.447388,-9.1366
32.391448,-1.626918,3.749154,-4.982512,-0.409124,3.872011,-9.101583
32.424803,-1.102719,5.757213,-6.934604,0.788169,4.651501,-8.898219
32.458134,-1.539377,4.955127,-2.940334,0.023793,4.57234,-8.431183
32.491406,-0.932276,7.226408,0.64122,0.13004,5.245584,-8.123667
32.524808,-1.497028,-3.018448,-30.465808,0.609346,5.506412,-8.201331
32.558022,14.691496,21.590784,-2.044572,0.152337,5.164328,-9.132859
32.591421,-11.647459,2.59825,-11.904994,-0.165505,4.692354,-9.662595
32.624803,5.126618,6.07266,-15.520817,0.893967,7.43501,-10.329254
32.658144,2.850698,-1.541023,-6.9364,-1.585168,6.419084,-12.644979
32.691469,0.884091,4.153639,-10.721468,0.486789,-3.512569,-25.146599
32.724831,1.448544,1.315511,-8.34858,-6.979796,-4.620974,-12.825298
32.758153,0.374107,2.126576,-8.478021,-5.803752,-0.240327,-9.634611
32.791469,0.862243,4.768372,-10.709497,0.954273,1.41637,-9.434389
32.82483,0.864188,3.295886,-9.199749,1.242336,2.046966,-10.634675
32.858124,0.878105,3.267154,-9.054446,-1.441959,3.071122,-13.084779
32.891472,0.985249,3.725212,-9.325,-2.010603,1.842404,-11.962607
32.924829,1.514387,4.01941,-9.353133,-2.250031,2.303155,-13.165586
32.958087,1.191906,4.33366,-9.527018,-2.714373,1.584719,-3.61268
32.991456,0.409722,4.094231,-8.884152,6.376136,19.138435,6.221406
33.024762,-0.191842,4.222325,-8.860658,9.575802,25.522054,6.668389
33.057788,1.81038,3.526336,-8.535035,28.818239,37.981475,9.785452
33.09087,-1.286331,3.680917,-8.328079,1.234105,-9.957541,-13.52054
33.124084,1.725682,4.381097,-9.909655,-2.049809,12.664732,-19.517181
33.1581,1.890739,4.653447,-8.308625,4.286971,5.78355,-10.064087
33.190804,2.022275,6.901533,-7.330858,-2.126127,4.81132,-8.864699
33.224809,2.408354,6.635617,-8.186966,1.399311,4.134335,-8.664626
33.258034,2.735623,6.099596,-9.873741,0.297939,3.922291,-8.832525
33.291458,0.772607,3.660117,-14.272346,0.887383,4.146157,-8.719844
33.324803,2.217708,5.367693,-9.628027,-0.144555,4.411324,-8.682284
33.358586,1.81053,0.183762,-7.642864,1.0686,4.115031,-8.852877
33.391496,0.568045,2.966222,-10.665651,-0.370666,4.410875,-8.564515
33.424806,2.867608,5.108511,-9.908009,0.76692,4.235195,-8.825193
33.458124,3.865726,5.517485,-9.234317,0.362435,4.070737,-8.985909
33.491459,-0.99767,4.742335,-8.099424,0.388174,4.398605,-8.773716
33.524786,-1.498076,6.694277,-11.15229,0.493672,4.432274,-8.766982
33.558174,-1.264034,7.697783,-9.002669,0.323229,4.293256,-8.813521
33.591052,0.063149,6.034801,-9.37947,0.302578,4.474623,-8.73406
33.624779,0.404934,7.101605,-12.347189,0.505943,4.55588,-8.591151
33.65812,0.040404,6.359376,-7.537066,-0.005686,4.411474,-8.606116
33.691473,-0.672046,4.523108,-8.623175,0.274445,4.8616,-8.486551
33.724818,-2.320513,6.955554,-9.870748,0.603959,4.595236,-8.781946
33.758141,-4.436016,6.306552,-3.354097,-0.306319,4.94525,-8.443603
33.791475,-2.215165,5.474238,-5.916882,0.172838,5.045511,-8.498971
33.824804,0.625208,5.786543,-4.565307,0.386827,4.572191,-8.705478
33.858144,0.154432,20.274225,15.7375,0.350015,5.371883,-8.719695
33.891502,6.180553,7.324124,-32.183559,-0.147997,5.424258,-8.633051
33.924794,7.618023,-4.117575,9.942427,0.534974,4.444844,-9.639999
33.958029,-20.078043,60.058149,-19.776961,2.464769,2.832292,-9.000574
33.991236,-1.805891,-0.777545,-2.335029,0.201569,10.079799,-8.993242
34.024561,2.649428,0.356898,-10.097307,-1.263136,6.695474,-9.45923
34.058113,1.449741,2.55231,-10.862582,0.618624,5.000319,-16.216956
34.090968,0.169396,2.390247,-8.832974,-0.51537,-3.941146,-14.143503
34.124795,0.722027,3.363973,-9.170269,-3.199665,2.25916,-9.771086
34.158114,0.769763,3.936507,-9.788594,-0.498161,-0.420646,-9.233868
34.191492,0.248407,3.140706,-8.969149,-1.42056,-0.716191,-12.328783
34.224792,0.044294,3.177818,-9.187329,-2.189127,-0.552931,-12.580333
34.258129,0.270704,3.159112,-9.050705,-3.57931,1.802449,-12.133798
34.291472,0.912074,3.735687,-9.576849,-3.971823,3.766962,-12.618791
34.3248,1.154346,3.028324,-8.844347,-2.6195,4.20347,-12.234209
34.358137,-0.079311,3.5832,-9.399971,-3.111975,3.303817,-1.203279
34.391468,0.597375,3.678673,-9.107719,12.517932,49.050414,-7.529135
34.424799,0.641968,3.585295,-9.278611,15.10032,28.096361,9.19092
34.458128,0.309761,3.923488,-8.931589,10.984541,22.658187,-0.640023
34.491455,1.679892,3.69244,-9.022572,-3.837593,-0.027085,-5.472443
34.524786,0.185557,4.814313,-9.233718,-1.472936,2.233421,-7.943347
34.558139,0.398499,3.976312,-9.213965,0.751806,3.556115,-8.831179
34.591463,1.088802,4.756551,-9.483771,-1.247424,4.617532,-8.651008
34.624905,0.672944,4.800995,-9.04846,0.574928,4.321389,-8.374468
34.658119,0.504746,5.790733,-8.22303,0.409573,4.063105,-9.130165
34.691474,1.092543,5.952048,-10.409163,0.216982,4.197485,-9.074648
34.724781,0.932276,2.53974,-12.904908,-0.669652,4.335755,-8.976332
34.75786,1.977681,3.811256,-10.11721,0.152935,4.226366,-8.823846
34.791468,1.813822,1.101971,-8.294409,-0.355701,4.292807,-8.690664
34.824786,0.991983,3.256979,-10.295435,-0.146201,4.244921,-8.671659
34.858136,0.092479,3.988733,-9.452496,0.050879,4.120867,-8.970346
34.891474,-0.221771,3.073516,-9.242248,0.194835,4.168903,-8.89358
34.9248,-0.794754,5.539483,-8.979026,0.206058,4.197784,-8.837912
34.958082,-0.073325,5.543673,-10.647245,-0.149344,4.141817,-8.726578
34.991472,0.535871,5.79223,-9.276067,-0.152785,4.301038,-8.698445
35.0248,-0.237034,4.7567,-8.586961,-0.093976,4.210204,-8.744236
35.058113,-0.566099,5.798664,-11.273351,0.003741,4.215891,-8.81786
35.091467,-2.012698,6.752339,-9.114752,0.115524,4.155734,-8.851829
35.124783,-2.775727,5.095492,-7.222367,0.296293,4.101713,-8.956879
35.158075,-1.596241,5.51943,-8.961966,0.035765,4.107849,-8.88939
35.19147,0.325024,4.874769,-8.548952,0.073475,3.99397,-8.911836
35.224791,1.297853,3.840287,-7.517912,0.135876,4.042305,-8.793169
35.257667,0.586002,4.144062,-7.356896,-0.488734,4.259287,-8.682733
35.291464,-1.501517,6.427763,-10.53621,0.566997,4.178779,-9.097543
35.324786,-0.770063,3.249646,-4.82404,0.747467,4.159924,-8.899715
35.35813,-1.702488,10.911365,-2.41419,0.108192,4.419555,-9.16578
35.39147,-4.771365,1.99055,3.915857,-0.425136,4.63534,-9.475092
35.424781,12.512694,9.899031,-9.494097,-0.255141,4.317349,-9.608125
35.458134,-1.854974,-2.968467,-0.683868,-0.220574,3.730449,-9.76944
35.491473,-3.861836,27.882821,-30.333374,-0.762431,3.501944,-9.370043
35.524779,0.674441,-3.584547,-1.568857,-1.166467,8.156438,-8.833722
35.558138,5.098335,7.262172,-14.147095,-0.133033,6.212726,-10.571975
35.591463,-0.414511,2.205438,-10.122148,-1.966159,5.983174,-9.033346
35.624804,1.266728,4.046495,-8.785986,-2.977146,6.774635,-17.347508
35.65813,1.217495,3.684958,-9.055493,-3.636174,-12.14996,-14.285514
35.691471,0.576724,3.459446,-8.966306,-3.833703,-5.835476,-13.893599
35.724806,0.728761,3.598165,-9.044719,-1.154346,-0.901299,-12.329082
35.757438,0.864188,3.526336,-8.987406,-5.335819,3.131877,-11.452324
35.791427,0.638377,3.611333,-9.360466,-5.488155,1.950147,-11.996875
35.824409,1.058425,3.799883,-9.443966,-3.538906,2.776026,-13.563487
35.85814,1.294112,3.332399,-8.763241,-1.431784,1.335863,-6.997155
35.891353,0.172538,3.928277,-9.008505,-2.427807,11.110989,-2.140044
35.924743,0.261127,3.063191,-8.706825,13.726149,17.253383,4.804436
35.95814,0.015114,4.165162,-9.879427,11.883146,34.274969,7.543351
35.991473,1.194899,4.751762,-9.784554,21.713641,35.010613,5.977039
36.025184,1.845696,3.091474,-10.017847,2.153811,-8.212555,-6.953459
36.058145,0.180619,3.477702,-7.95023,-4.434968,12.013336,-16.182987
36.091375,1.189811,4.645815,-8.841354,2.729787,3.809012,-7.484392
36.124876,1.004254,5.73357,-9.930905,-1.52142,4.585359,-8.334214
36.15812,0.765274,4.475072,-9.540336,0.911774,4.315403,-8.644274
36.191469,-0.156826,1.828487,-11.918612,1.366839,4.616485,-8.67121
36.225103,0.570589,3.892063,-12.021716,-0.377549,4.058167,-8.596239
36.257227,3.0385,2.027512,-12.418868,-0.039057,2.968168,-9.380518
36.291472,1.580529,3.091623,-9.531956,0.995126,3.539954,-9.272924
36.324764,1.037026,4.247615,-8.008741,-0.64122,4.153639,-8.782545
36.35812,1.003805,4.919362,-9.107719,0.517166,4.005193,-8.864699
36.391471,0.57014,5.115394,-9.648379,0.864936,4.036918,-8.800053
36.424719,0.703771,6.504081,-10.542495,-0.115824,4.265572,-8.735557
36.45814,0.478109,4.927593,-8.578132,0.77934,4.088395,-8.812024
36.491458,-0.137522,4.996279,-8.812473,0.313352,4.176984,-8.601626
36.524802,-0.361088,5.009747,-10.799731,0.133182,3.288853,-9.087367
36.558126,-0.929283,6.078496,-10.386717,-0.007183,3.631984,-9.516094
36.591455,-1.919021,4.067744,-5.81288,0.149194,3.641112,-9.054296
36.624804,-0.625807,6.670783,-13.969618,0.199624,3.567787,-9.077192
36.65815,-0.90953,4.708665,-7.421542,-0.387575,3.768608,-8.880561
36.69146,0.259032,2.718414,-6.038991,0.533178,3.494761,-8.93518
36.724099,0.202617,4.242826,-9.69372,0.542755,3.588438,-9.280407
36.758119,0.262174,3.38657,-8.538627,0.031425,3.710098,-8.961817
36.791376,1.555838,1.13145,-6.60105,0.076767,3.35694,-8.953586
36.824787,1.404698,2.560241,-7.231944,-0.027085,3.526336,-9.31662
36.858154,-0.444739,2.863567,-7.819293,0.440848,3.567189,-9.194512
36.891251,-0.4609,1.589208,-5.29766,0.805528,3.678224,-9.650174
36.924798,0.749262,16.12732,11.578623,1.325537,4.018212,-9.617403
36.958068,6.074007,-6.166487,-16.223091,1.812924,3.746012,-9.792634
36.991476,0.059109,41.289332,-32.838845,-0.518662,3.424878,-9.574754
37.024808,-3.515562,-0.107893,1.505258,-3.455256,1.807388,-9.263198
37.058142,2.098144,-0.79191,-12.916431,-0.859549,7.35121,-8.463206
37.091461,0.706614,2.927016,-8.870086,-4.719739,4.37556,-10.33913
37.124792,3.392855,7.068085,-13.874146,-6.550021,2.291034,-16.824357
37.158125,0.988541,4.473726,-9.659901,1.244281,-9.25377,-12.972098
37.19146,0.01257,3.846123,-9.108916,-0.735345,-4.339047,-12.272517
37.224739,1.155692,4.288468,-9.067764,-3.278378,0.639873,-11.652696
37.258137,1.084313,4.185663,-9.086469,-6.11905,3.116913,-10.498201
37.291517,1.117234,3.62106,-8.861406,-4.624566,4.05293,-11.312259
37.324808,0.56176,3.95656,-8.951641,-2.819273,4.694449,-9.592412
37.358125,1.224528,3.73015,-8.802447,-6.714329,11.487939,-4.143015
37.391477,-0.030677,3.694834,-9.278461,7.029926,-0.172688,-0.136923
37.424789,1.365941,4.181623,-9.560239,5.163729,31.724005,4.232651
37.458135,0.677284,4.042006,-8.891634,29.448535,31.185889,0.692697
37.491431,1.439416,4.063854,-9.092754,-3.994419,-9.335775,-5.03758
37.524872,0.128094,3.945336,-9.042025,0.271153,13.201052,-11.361042
37.558136,1.292616,3.902838,-9.287739,1.541173,5.332826,-9.332333
37.591452,0.351062,3.581704,-8.665224,-1.748279,4.670656,-8.398261
37.624795,0.15503,3.929773,-9.17012,0.742528,4.231603,-8.310421
37.658135,2.228782,3.477104,-8.647417,0.514622,4.096775,-9.406855
37.691453,-0.0211,3.668497,-9.428703,-0.492026,4.448137,-8.57469
37.724802,1.107059,3.188293,-9.051154,-0.858352,4.273204,-8.751568
37.758126,1.355466,3.581704,-8.908544,0.498161,4.327973,-8.906898
37.791471,0.932724,4.089592,-9.620096,-0.179871,4.075975,-8.91857
37.824791,-0.225811,3.356342,-8.953886,1.088204,3.979605,-8.968251
37.858127,1.399012,2.48093,-9.058336,-0.141263,4.077471,-8.865447
37.891468,2.245542,3.823826,-9.39204,-0.238232,3.803026,-8.961966
37.924801,0.850122,3.827418,-9.156053,-0.196631,3.795544,-8.937126
37.958136,-0.207106,3.120504,-8.907347,0.655735,3.973918,-8.955083
37.991388,1.366689,3.913313,-9.217257,0.331908,4.037367,-8.941914
38.024783,0.225811,3.970177,-9.682647,-0.991085,3.623005,-9.1993
38.057966,1.352174,4.202573,-9.698958,0.662619,3.803175,-9.238806
38.091125,1.803646,2.739364,-8.345587,1.526358,3.615374,-9.200797
38.124794,-1.616443,2.280559,-9.330238,-0.499807,3.655777,-8.854672
38.158131,0.218329,4.871327,-10.950123,-0.659776,4.553036,-8.955083
38.191467,2.240454,2.95051,-8.840007,-0.570439,3.660715,-8.884451
38.224806,0.618175,3.29409,-8.784191,0.120912,3.707554,-8.924256
38.258125,0.999914,3.580058,-9.179996,0.562657,3.841933,-8.984862
38.291474,0.822138,3.656675,-9.265742,0.228954,3.807365,-8.998928
38.324805,0.693146,3.171533,-9.542431,-0.081106,3.795693,-8.857366
38.35816,0.887083,3.124245,-8.970795,-0.054171,3.84732,-8.991446
38.391534,1.024007,3.379686,-9.144082,0.181517,3.589036,-9.107569
38.424101,0.997221,3.299777,-9.246737,0.220574,3.905232,-9.015838
38.45813,0.854162,3.636174,-9.213067,-0.413314,3.799734,-8.988154
38.491461,0.543503,3.230642,-9.058636,0.225213,3.864828,-8.988902
38.524783,1.211809,3.716383,-9.261402,0.201569,3.847919,-9.01479
38.558094,0.907884,3.41141,-9.430947,0.274296,3.762622,-8.96032
38.591378,1.084014,3.413206,-9.215162,0.01661,3.853007,-9.08183
38.624805,0.867331,3.65024,-9.017035,0.449228,3.635575,-9.050555
38.658107,0.712001,3.57482,-9.34595,0.247061,3.865277,-8.983216
38.691381,0.820492,3.469172,-9.234616,0.075719,3.883833,-9.004914
38.724802,0.717239,3.404826,-9.162039,-0.124353,3.886527,-8.981719
38.758139,0.87182,3.414702,-9.242846,0.080059,3.778634,-9.049208
38.791824,0.779939,3.46588,-9.241799,0.027235,3.941296,-8.959423
38.82481,0.952328,3.519153,-9.218305,0.180469,3.84732,-8.988004
38.858137,0.994976,3.465282,-9.255716,0.010475,3.881588,-8.970945
38.890987,0.836205,3.569134,-9.206333,0.29345,3.83894,-9.019429
38.924105,0.835157,3.420688,-9.217257,0.068387,3.841484,-9.012845
38.958135,0.748664,3.467526,-9.202742,0.232844,3.860189,-9.009254
38.99136,0.772457,3.389562,-9.164284,-0.117021,3.847619,-9.005662
39.024802,0.949335,3.469023,-9.245091,0.232994,3.857346,-9.027211
39.05812,0.772457,3.44493,-9.222944,-0.046389,3.80108,-8.984563
39.091425,0.852366,3.460344,-9.245689,0.201868,3.848817,-8.952689
39.124801,0.691949,3.45765,-9.208728,0.095921,3.907177,-8.949696
39.158092,1.058574,3.527533,-9.210673,-0.005088,3.874106,-8.976781
39.191371,0.774702,3.459296,-9.213067,0.074073,3.892063,-8.976332
39.224823,0.922549,3.517956,-9.14902,0.123605,3.82218,-9.020178
39.258141,0.818098,3.502393,-9.233568,0.119265,3.903586,-9.003118
39.291401,0.848775,3.46618,-9.237459,0.063149,3.827118,-9.00222
39.324777,0.895463,3.480396,-9.233419,0.158472,3.944438,-8.929195
39.358149,0.853114,3.482042,-9.226984,0.045791,3.930671,-8.977978
39.391477,0.755996,3.426225,-9.245241,0.266065,3.845375,-8.983814
39.424795,0.818397,3.504787,-9.212319,0.152037,3.903137,-8.920964
39.458126,0.820941,3.430415,-9.197355,-0.006435,3.940847,-8.982019
39.491469,0.878853,3.482491,-9.216509,0.095173,3.883833,-8.958525
39.524805,0.842191,3.446726,-9.218006,0.067639,3.897451,-8.961667
39.558043,0.855509,3.457949,-9.230426,0.183313,3.833553,-8.989052
39.591458,0.929133,3.396147,-9.179847,0.102356,3.870964,-9.00671
39.624528,0.77111,3.477104,-9.23716,0.152037,3.811107,-8.989052
39.658165,0.839347,3.731497,-9.245989,0.057463,3.884282,-9.012546
39.691475,0.918209,3.386869,-9.204538,0.070631,3.880242,-8.99384
39.724738,0.834559,3.390011,-9.145578,0.265467,3.838791,-8.999527
39.758135,0.810317,3.360083,-9.166828,0.085596,3.81799,-9.02332
39.791462,0.928086,3.514065,-9.192117,0.012121,3.866923,-9.007907
39.824773,0.795203,3.48279,-9.212169,0.039805,3.855251,-9.018382
39.858132,0.858801,3.465282,-9.207979,0.061054,3.907626,-8.990548
39.890607,0.842789,3.447175,-9.212169,-0.165954,3.230043,-8.97319
39.92479,0.994377,3.494163,-9.141538,-0.220424,3.945935,-8.915128
39.957982,0.328317,3.446576,-9.178799,0.193788,3.845524,-9.082878
39.991478,0.75839,3.349009,-9.238058,0.213989,4.138675,-9.007159