time_tick,acc_X_value,acc_Y_value,acc_Z_value,acc_A_value,acc_B_value,acc_C_value
0.014504,1.090299,3.635276,-9.108317,-1.302642,3.599811,-9.026612
0.048157,0.950532,3.677475,-9.047712,-1.297255,3.635126,-9.022572
0.081453,0.814955,3.657723,-9.126125,-1.383299,3.548334,-8.977679
0.114859,0.951131,3.682114,-9.118942,-1.373273,3.558809,-8.99414
0.148162,0.914767,3.691691,-9.120887,-1.283039,3.555217,-8.992194
0.181461,0.866433,3.612081,-9.098142,-1.296207,3.603253,-9.011648
0.214895,0.839647,3.634678,-9.048011,-1.358758,3.555516,-8.991296
0.248166,0.897259,3.659219,-9.102332,-1.321497,3.534117,-9.00656
0.281505,0.884539,3.669095,-9.092156,-1.44166,3.559557,-8.98157
0.315616,0.920903,3.681665,-9.128369,-1.3411,3.548782,-8.992643
0.348153,0.893967,3.691243,-9.141987,-1.36624,3.5835,-8.993391
0.381518,0.769913,3.752447,-9.206184,-1.305934,3.57093,-9.017634
0.41505,0.908482,3.690045,-9.134355,-1.396917,3.528581,-8.977679
0.448187,0.869426,3.716981,-9.151414,-1.364893,3.57916,-8.990249
0.481482,0.767968,3.728803,-9.162638,-1.317756,3.622556,-9.013444
0.514968,0.818846,3.677326,-9.188676,-1.26987,3.554319,-9.020178
0.548188,0.935119,3.623604,-9.055493,-1.459468,3.300375,-8.948199
0.581484,0.801787,3.702167,-9.187778,-1.47937,3.694086,-8.94775
0.614815,0.770212,3.820235,-9.249879,-1.201483,3.534267,-9.085721
0.648209,0.837252,3.657423,-9.066717,-1.429838,3.575569,-9.020926
0.681485,0.75854,3.775492,-9.188227,-1.466052,3.582452,-8.975434
0.714865,0.77096,3.755739,-9.122533,-1.254457,3.605647,-9.04442
0.748143,0.849822,3.719824,-9.096795,-1.317756,3.696779,-9.057738
0.781507,0.776797,3.712492,-9.088564,-1.389884,3.725361,-9.025565
0.814471,0.870473,3.765914,-9.134654,-1.36609,3.70052,-9.042624
0.847676,0.78772,3.757983,-9.13211,-1.317457,3.568086,-8.96481
0.881482,0.819594,3.760078,-9.114453,-1.337808,3.557462,-9.008356
0.914916,0.86344,3.810059,-9.152761,-1.147612,3.607443,-9.00641
0.948156,0.759737,3.784171,-9.150068,-1.495681,3.611782,-9.012097
0.980694,0.860746,3.732544,-9.085123,-1.519624,3.560006,-8.952689
1.01406,0.808521,3.77624,-9.097693,-1.491342,3.527982,-8.972741
1.048105,0.778742,3.739278,-9.087218,-1.30354,3.598913,-8.990698
1.081456,0.753901,3.755589,-9.097693,-1.202531,3.717131,-8.995038
1.114785,0.875711,3.681665,-9.068363,-1.30339,3.617768,-9.056241
1.148123,0.733101,3.792401,-9.129267,-1.409637,3.577364,-9.013144
1.181524,0.902497,3.807814,-9.307043,-1.40799,3.69229,-9.005812
1.214826,0.959062,3.518555,-8.829682,-1.314015,3.729701,-8.982767
1.248008,0.749562,3.463636,-8.844197,-1.223032,3.709798,-9.015539
1.281378,0.763927,3.639017,-9.117296,-1.33691,3.630338,-8.987855
1.314732,0.724571,3.70501,-9.150517,-1.247723,3.65473,-8.98127
1.348007,0.768716,3.790905,-9.149768,-1.404249,3.61702,-8.945655
1.381331,0.750609,3.765914,-9.125676,-1.305036,3.579459,-8.910938
1.414706,0.721279,3.753793,-9.100835,-1.210013,3.686903,-8.903755
1.448033,0.690153,3.765914,-9.10308,-1.383748,3.667599,-8.954784
1.481612,0.747467,3.782525,-9.108916,-1.266279,3.682563,-8.943411
1.513937,0.646607,3.751549,-9.12373,-1.177241,3.738979,-8.995935
1.548188,0.753003,3.819936,-9.101733,-1.367138,3.67119,-8.9268
1.581469,0.719334,3.810059,-9.122833,-1.279148,3.700221,-8.932187
1.61486,0.643614,3.768907,-9.079436,-1.184274,3.682863,-8.992943
1.648164,0.538266,3.761724,-9.066717,-1.292316,3.719824,-9.024068
1.681469,0.811065,3.768309,-9.08632,-1.234704,3.723266,-9.034693
1.714784,0.71649,3.77205,-9.131512,-0.947838,3.836845,-8.993092
1.748121,0.690752,3.792551,-9.092305,-1.382102,3.779382,-8.886247
1.781455,0.873466,3.77205,-9.09889,-1.296207,3.916455,-8.919019
1.814828,0.566249,3.772948,-9.13211,-1.055132,3.778335,-8.953437
1.848126,0.814507,3.765316,-9.067914,-1.15659,3.736584,-8.961817
1.881458,0.50714,3.732245,-9.135253,-1.556287,3.854653,-8.853775
1.914788,0.771709,3.784171,-9.097543,-1.130403,3.788361,-8.793468
1.948144,0.663966,3.774893,-9.095298,-1.383898,3.753644,-8.870235
1.981495,0.759288,3.842681,-9.15321,-1.237248,3.784919,-8.90196
2.014293,0.517914,3.752297,-9.128519,-1.349031,3.836247,-8.949995
2.048158,0.872269,3.786565,-9.100985,-1.26972,3.877548,-8.969898
2.081513,0.850571,3.749304,-9.144232,-1.100774,3.848667,-8.874126
2.114807,0.617726,3.789857,-9.057888,-1.43747,3.896253,-9.070607
2.148182,0.500256,3.859292,-9.214414,-1.147163,3.722069,-9.188077
2.181495,0.760635,3.653233,-9.060431,-1.378361,4.127152,-9.189124
2.214788,0.684467,3.916605,-9.339665,-1.348582,3.820684,-9.101733
2.248158,0.717688,3.643955,-9.191968,-1.297704,3.930821,-9.322456
2.281475,0.74597,3.335092,-8.953437,-3.246504,3.508828,-10.132922
2.31479,1.029394,3.544742,-9.106522,-1.715656,2.135255,-9.382313
2.348144,0.884689,3.475009,-9.261851,-1.251464,2.785005,-9.587624
2.381552,0.80029,3.356791,-9.167875,-0.925542,2.473299,-8.873976
2.41482,1.126961,3.439393,-9.310485,-1.523964,2.537944,-8.792271
2.448153,1.053636,3.489973,-9.324851,-1.657745,3.202359,-9.577598
2.480874,0.800739,3.31504,-9.224739,-1.322544,2.378275,-9.345501
2.514822,0.996023,3.362926,-9.426309,-1.489696,2.159497,-9.500382
2.548155,1.031489,3.282268,-9.345352,-1.482962,2.039334,-9.891399
2.581558,0.94305,3.136367,-9.363458,-1.874128,2.416434,-9.914444
2.614824,1.048398,3.00917,-9.199001,-1.501817,2.571614,-9.519985
2.647354,0.97253,2.797276,-9.134954,-1.460964,2.5776,-9.224141
2.681554,0.946791,3.028773,-9.218903,-1.383599,2.951109,-9.009553
2.714877,0.985848,3.169587,-9.213067,-1.39991,2.972358,-8.919318
2.748131,0.954722,3.014557,-8.845095,-1.176642,3.057954,-8.605816
2.78141,0.770362,3.309054,-9.499634,-0.843687,3.098806,-8.318053
2.814765,1.109303,3.837893,-9.500681,-1.150006,4.012975,-9.330986
2.848157,0.860447,3.506583,-9.243146,-1.110351,2.288939,-7.838896
2.881816,0.801188,3.666701,-9.205436,-0.890974,2.96712,-8.694704
2.914822,0.748514,3.697528,-9.209326,-0.887383,3.873358,-10.965835
2.948147,0.772307,3.658321,-9.149918,-1.985163,1.788084,-10.598162
2.981489,0.660674,3.65443,-9.128519,-0.449827,1.254008,-9.464467
3.014826,0.65379,3.716832,-9.130015,-2.192868,2.180447,-8.853176
3.048122,0.792808,3.756038,-9.059085,-1.700991,3.456453,-9.610519
3.08147,0.656783,3.833403,-9.167875,-1.374171,2.965624,-8.807385
3.114811,0.726367,3.870664,-9.131662,1.495831,3.284214,-7.448478
3.148123,0.653191,3.85166,-9.084374,1.165419,8.555985,-3.10569
3.181441,0.691799,3.879942,-9.082878,-1.658044,9.225039,0.387426
3.214814,1.038223,3.658171,-9.336223,-13.772838,11.399351,-11.24896
3.24813,1.980973,4.977424,-9.666485,9.946467,6.294731,-10.475455
3.281454,-0.514472,2.144683,-8.77626,-2.557099,4.731411,-9.427655
3.314809,1.796763,4.718092,-9.580441,-1.764141,4.13224,-8.749473
3.348164,1.463508,4.595236,-8.318202,-1.272863,3.598015,-9.019729
3.381453,1.777908,5.833232,-7.928083,-1.164521,3.74676,-8.988004
3.414828,1.910492,3.16001,-10.230789,-1.250117,3.733292,-8.887444
3.448147,0.942302,3.195326,-9.030802,-1.23231,3.731197,-8.889539
3.481453,1.232759,4.2958,-9.399223,-1.103766,3.636174,-8.870535
3.51481,2.292979,4.730962,-8.587111,-1.245179,3.756786,-8.954784
3.54816,3.929175,3.363973,-7.281925,-1.491491,3.755739,-8.93114
3.581454,3.359634,3.942044,-7.087539,-1.195049,3.751698,-8.904952
3.614846,2.037688,5.027255,-8.89358,-1.273312,3.781926,-8.85976
3.648149,0.222369,5.987214,-8.270167,-1.25715,3.864978,-8.882955
3.681431,0.625657,7.192888,-7.196629,-1.228269,3.843429,-8.929644
3.714786,-1.465753,8.25206,-7.010922,-1.335264,3.933066,-8.85587
3.748195,-0.868378,5.965965,-7.33415,-1.239493,3.915707,-8.81816
3.781487,1.154495,6.019836,-7.974922,-1.315511,3.954913,-8.879663
3.814766,2.169374,5.066611,-8.243531,-1.184274,4.010132,-8.931739
3.848142,2.909807,4.91188,-8.60432,-1.215699,3.924386,-8.875772
3.881454,2.404762,5.051198,-8.299946,-1.238894,4.010431,-8.894477
3.914788,0.996323,6.415492,-7.957563,-1.200735,3.993821,-8.881608
3.948156,-1.137286,7.984798,-6.58399,-1.350528,4.01926,-8.814867
3.981507,-4.074179,12.120031,-6.491661,-1.151203,4.175487,-8.760397
4.014788,-2.069712,12.432186,-5.672515,-1.017722,4.423296,-8.846292
4.048155,0.124353,1.241588,-7.739683,-0.821091,4.175637,-8.945955
4.081482,2.38052,5.150411,-8.962415,-1.019218,3.516011,-9.223393
4.114786,0.217581,4.012376,-9.12388,-1.60522,3.906279,-9.01479
4.148156,0.13004,3.790605,-8.999228,-1.295609,3.946085,-9.785452
4.181514,0.767219,4.153639,-9.070009,-2.600794,0.337146,-10.788209
4.214787,0.763329,3.758881,-9.074648,-7.529584,-12.274463,-12.97539
4.248199,0.292552,3.755439,-9.1366,-10.212233,-7.690151,-13.345757
4.281548,0.836205,3.769955,-8.95628,-0.871969,-1.646222,-12.823503
4.314831,0.269806,3.99412,-9.340114,2.211274,-5.876778,-11.078816
4.348101,0.470926,3.837593,-8.995935,-1.352024,-3.726259,-11.024196
4.381456,0.440698,3.96883,-9.118643,0.15084,2.836482,-10.121699
4.414772,0.383834,3.967932,-9.113106,4.528644,2.030804,-6.778825
4.448122,0.593484,3.941895,-8.948199,-2.616357,19.816318,-14.778588
4.481517,0.635234,3.912265,-9.042025,2.166082,11.974578,-6.384965
4.514829,0.734148,3.78432,-8.886247,-3.236627,27.375531,4.148252
4.548121,0.973876,3.863781,-9.629224,-13.656116,27.86621,-7.223415
4.581478,0.485142,3.586343,-9.530011,0.510432,5.166123,-11.017761
4.614804,1.748428,2.515049,-9.534201,1.110201,3.19368,-10.126787
4.648119,3.743169,4.351168,-10.591279,-1.9488,3.955662,-8.815765
4.681475,3.519004,4.141817,-12.29646,-2.364359,3.693487,-8.667469
4.714809,1.24458,5.918977,-6.175914,-0.841293,3.656376,-9.089313
4.74812,1.016375,4.779296,-8.662681,-0.727863,3.773397,-9.213816
4.781507,-1.082816,4.248064,-7.42244,-1.804844,4.09468,-8.993391
4.814814,-0.412715,4.746824,-9.665438,-0.695391,4.393816,-8.923508
4.848118,1.523066,3.413056,-8.774015,-1.827589,3.950873,-8.659388
4.881433,4.211551,2.207233,-8.133842,-2.060733,4.210803,-8.728374
4.914831,4.278142,2.404463,-8.074584,-2.098593,3.630039,-8.746181
4.948122,2.547671,3.82218,-7.828421,-2.736072,2.75792,-7.843984
4.981479,-0.117619,6.50887,-7.222517,-3.261318,3.259672,-7.703918
5.014814,-1.975137,6.601648,-2.735922,-2.181794,4.291161,-8.976332
5.048143,-2.655115,12.22523,-9.607526,-0.636431,3.78866,-9.27906
5.081457,-4.251356,10.90508,-4.294004,-0.220125,3.395847,-9.486615
5.114784,-1.996835,11.091984,-3.63378,-1.209115,3.519004,-9.080633
5.148107,-0.332806,9.565327,-5.929302,-1.677497,3.906429,-8.869487
5.181455,-0.848625,8.63784,-5.051347,-1.141626,3.733292,-8.909591
5.214802,0.496216,4.659582,-7.882891,-0.715892,3.540702,-9.206184
5.248107,0.893817,6.073259,-8.526655,-1.343345,3.546538,-8.990249
5.281466,0.260977,5.707681,-8.173198,-0.493822,3.915408,-9.071655
5.314802,-0.496964,5.258304,-7.421243,-1.801252,3.867223,-8.959273
5.348099,0.762431,5.86765,-9.032748,-1.838364,3.819487,-9.007757
5.381452,-0.123605,1.774616,-9.776772,-1.618388,3.429517,-12.432037
5.414771,0.653042,6.233976,-8.831627,0.003143,0.531382,-13.737971
5.448179,4.82404,4.91607,-8.665075,-0.955171,-1.492988,-17.6652
5.481482,-0.449527,3.722668,-8.676597,7.705564,-31.673127,-29.497767
5.514786,-0.278186,4.05697,-9.33338,-9.637604,-14.399692,-19.075585
5.548101,2.578198,3.401534,-9.818523,-4.069989,11.196585,-11.840498
5.581486,-0.416157,3.641561,-7.512076,-1.233956,33.682383,13.744256
5.614663,1.823998,2.818974,-10.009018,-20.436288,35.390557,13.054102
5.647832,2.117448,2.568023,-9.392489,-17.015151,8.664626,-4.883747
5.681454,1.903907,5.120632,-8.802297,8.859611,-0.95143,-5.826647
5.714787,6.515903,3.786715,-20.524428,0.701227,6.762963,-11.399051
5.747311,7.024539,0.303177,-6.355785,-0.873616,3.807066,-10.002135
5.781454,-0.692996,4.622321,-7.522102,-1.099576,2.487515,-8.314461
5.814604,-3.031018,6.208237,-7.143655,-2.823613,1.654452,-7.876008
5.848185,-3.261767,6.342018,-6.484179,-0.74582,-1.018769,-7.211743
5.881454,-0.211894,4.092286,-6.661056,-1.853478,1.398713,-8.119028
5.914789,0.946791,3.653533,-8.614944,-4.754156,2.578647,-8.754561
5.948175,3.396596,3.452861,-9.265143,-1.421458,2.118196,-8.980821
5.981457,5.014236,3.974068,-7.187201,-2.514151,2.940185,-8.54551
6.014823,4.318097,5.260548,-7.536318,-2.51475,4.216938,-9.751782
6.048119,-0.430373,9.029006,-14.24137,-2.100089,2.710632,-8.774165
6.081454,-1.934434,5.462865,-6.709092,-4.24552,1.513189,-6.766255
6.114805,-0.202617,5.948307,-7.875259,1.859014,1.91543,-8.85587
6.148178,0.716939,5.191413,-8.928297,-1.58831,3.393902,-8.952389
6.181454,-0.375604,5.274315,-8.188761,-1.436123,3.431163,-8.889988
6.214787,-0.306918,5.593653,-8.494183,-1.084462,3.942493,-9.402964
6.248149,-1.448544,6.895098,-8.854523,-0.843837,3.749903,-9.037985
6.281455,-1.897473,7.333253,-6.813692,-1.086109,3.913163,-9.099039
6.31479,-1.740946,9.048011,-6.853497,-1.245778,3.668497,-9.105773
6.348118,-1.276305,10.810655,-6.248491,-1.067852,3.508977,-8.809181
6.381537,0.767519,4.19105,-8.918271,-1.304288,3.568685,-9.029904
6.414828,0.61174,3.021291,-8.075931,-1.752319,3.837893,-8.923957
6.44812,0.249904,4.517721,-8.327331,-0.68297,3.806318,-8.903306
6.481474,0.379644,3.338684,-8.970646,-0.900551,3.792252,-8.818608
6.514824,0.987045,4.217238,-9.043073,-0.952328,3.865726,-8.882506
6.548124,0.533926,4.346679,-9.187628,-0.597524,3.794945,-9.544526
6.581534,0.825281,5.341056,-8.950594,-1.678395,4.099768,-11.205862
6.614813,-0.317842,3.536961,-7.953523,-0.383236,0.3563,-12.496682
6.648161,3.238273,4.561117,-8.48266,0.752405,-0.161165,-13.813091
6.681484,0.947689,5.681643,-8.9479,6.245049,-27.331835,-23.346095
6.714787,0.694044,3.913462,-8.594144,-0.53243,-20.041231,-21.218771
6.748123,-0.146351,4.759244,-8.413974,-8.835668,-5.92601,-15.54057
6.781455,1.768331,5.143228,-8.718647,3.951771,10.788808,-4.739042
6.814789,-0.510133,5.350184,-8.600579,1.654003,28.824973,2.267689
6.848118,4.030034,5.272669,-8.92276,-10.665352,73.347191,15.285877
6.881453,2.410898,4.511585,-9.632068,2.996151,-6.149278,-10.195623
6.914921,2.005066,2.714822,-9.304499,4.812517,6.394243,-12.266232
6.948149,3.870365,1.414575,-10.371753,0.009128,4.417161,-9.844112
6.981455,6.011756,1.942814,-22.943556,-2.253772,2.286095,-8.723585
7.014773,3.528581,-6.84826,-5.630615,-2.256167,4.374213,-8.044057
7.048143,2.603189,5.024561,-4.662874,-1.818611,3.632882,-8.329276
7.081459,-0.262623,12.631211,-1.66373,-0.877806,3.934113,-8.999078
7.114776,0.796699,6.81893,-8.634697,-2.195412,3.824126,-8.664476
7.148158,0.876309,4.764931,-8.499869,-2.167428,4.00684,-8.428639
7.181459,1.430437,4.659432,-9.707488,-1.26987,4.016716,-8.864998
7.214787,4.518319,4.999571,-8.537729,-0.782932,3.801529,-9.170569
7.248159,5.99754,4.628905,-6.665845,-0.661422,3.664456,-9.219951
7.28142,4.459659,4.280387,-7.079159,-1.76878,4.126554,-8.77611
7.314787,-2.360767,6.859333,-8.701737,-1.19879,3.786116,-8.873079
7.348145,-3.993372,8.1726,-8.062313,-1.1524,3.883983,-8.885349
7.381498,-2.350292,8.665075,-6.932808,-0.988242,3.763221,-8.908694
7.414786,-0.770063,9.196008,-7.228054,-0.59079,4.047542,-8.875323
7.4482,-0.788469,7.920003,-5.722047,-0.952178,4.047542,-8.844347
7.481456,-1.239044,8.91872,-7.244664,-0.656933,3.869318,-9.138545
7.514786,-0.417953,6.933407,-8.090446,-1.459019,3.974666,-8.99803
7.548109,0.061503,5.284192,-8.439264,-1.477874,3.888472,-8.842252
7.58146,-0.140964,4.893175,-8.787632,-1.153298,3.832356,-9.009852
7.614823,-1.477574,6.021034,-7.923744,-1.078626,3.735986,-8.982468
7.648052,0.573731,4.196437,-9.192117,-1.427145,4.072084,-8.778803
7.681479,0.421843,5.25157,-9.763155,-1.457223,3.970327,-8.894627
7.714824,1.260592,2.77019,-8.849136,-1.330625,3.894907,-9.218604
7.748128,1.327183,4.585958,-8.825342,-1.445701,3.683611,-9.781411
7.781489,0.462247,4.738743,-9.59346,-1.12741,3.585295,-10.310249
7.814821,0.953525,3.615374,-8.46156,-2.299264,2.62788,-12.324294
7.848115,0.460302,4.009832,-9.155754,-1.925456,0.139617,-13.846462
7.881512,0.366326,4.047393,-9.341461,0.727414,-13.867113,-18.01327
7.914829,1.093441,3.640065,-8.456473,-1.465304,-13.15167,-18.232796
7.948119,1.150605,4.37107,-8.837912,-4.053079,-6.208985,-14.91581
7.981515,0.356749,6.384816,-8.409485,-2.098443,-3.670442,-10.849114
8.014786,1.750972,4.322586,-8.577384,-4.0863,5.671168,-12.123323
8.048123,1.097631,4.376757,-8.497624,-4.741736,17.108229,-2.826007
8.081442,1.63859,4.945849,-9.148571,-1.534439,34.917685,7.676384
8.114867,1.611954,4.9662,-9.654215,-19.663382,42.143045,-1.360853
8.148151,1.810081,4.917118,-10.172279,-2.264397,6.278719,-10.522892
8.181435,2.833938,7.441744,-8.991745,0.681025,3.835498,-9.623987
8.214763,5.281349,4.609751,-11.535077,-0.722327,4.069839,-9.075545
8.24812,17.205048,-1.942365,-7.157572,-2.322758,3.912564,-8.557332
8.281497,-1.403352,4.92864,-11.946745,-0.341934,3.712642,-8.94386
8.315144,-3.776838,8.4867,-8.531893,-1.176792,3.79719,-8.925902
8.348137,-2.085873,4.934925,-7.494568,-1.188165,4.0863,-8.793468
8.381458,-3.293342,7.56086,-9.334128,-1.297105,3.871413,-8.943111
8.414765,0.143358,5.475136,-8.409036,-1.04376,3.884881,-8.980223
8.448145,3.824126,3.36532,-8.875174,-1.421159,4.03183,-8.900613
8.481446,3.626746,2.276967,-9.555899,-1.31611,3.806019,-8.897021
8.514771,2.787998,2.976847,-10.321622,-1.262986,3.895954,-8.887893
8.548145,0.281478,4.239385,-8.841654,-0.935867,3.894907,-8.856468
8.581443,-3.791952,7.205607,-6.428062,-0.573432,3.882935,-8.866195
8.614773,-6.792593,9.819121,-7.682819,-0.864338,3.631685,-8.860209
8.648106,-6.601798,10.839237,-7.151137,-1.41233,3.43685,-8.987256
8.681467,-1.193403,13.201501,-5.120333,-1.061417,3.695881,-8.848238
8.714785,-0.007333,-0.040553,-8.16841,-1.01832,3.806767,-9.034693
8.74813,0.640621,5.16343,-7.92509,-1.20702,3.703214,-8.887295
8.781457,0.739835,4.248513,-9.187029,-0.612788,3.753644,-8.920815
8.814794,0.499658,3.976312,-9.278162,-1.073688,3.938303,-8.995786
8.848119,0.527342,3.865427,-8.865147,-1.416969,3.762024,-9.503375
8.881478,0.385929,4.359997,-9.553206,-1.573196,2.507567,-11.095127
8.914771,1.000513,3.730449,-9.448306,-4.269912,1.205973,-14.112078
8.948145,1.94446,2.987771,-7.762728,-5.267581,-14.809863,-17.693932
8.981513,1.527256,3.871562,-9.437681,-4.612594,-24.349601,-20.635313
9.014796,1.073539,3.761874,-9.319463,-4.747123,-15.879361,-19.517032
9.04816,0.141712,3.618666,-8.991147,-4.896317,-7.95038,-10.23872
9.081482,1.174099,3.949227,-9.303751,0.51567,22.088646,-15.484454
9.114794,0.691201,3.769805,-8.593994,-0.667856,27.71118,2.356577
9.148169,0.732353,3.733891,-8.880261,4.301187,75.911173,24.828907
9.181482,-0.827525,6.845716,-9.611866,-11.24028,-11.627556,-8.857216
9.214788,2.877035,2.866411,-10.826966,4.077022,3.550578,-10.018595
9.248123,9.994203,2.001325,-14.365124,-1.41248,3.913313,-9.261851
9.281455,9.483023,-4.220081,-7.814055,-1.826392,4.01507,-8.547007
9.314785,15.346483,-6.773289,0.74597,-1.702937,4.054725,-8.437618
9.348118,-5.080378,21.928079,-12.951597,-0.687011,3.855999,-8.863352
9.381461,-1.732416,4.612594,-1.26149,-0.921651,3.819487,-8.814718
9.414812,-5.357367,4.351018,-6.469514,-1.385544,3.749304,-9.015838
9.448124,-0.913869,4.98296,-6.570672,-1.879515,4.003547,-8.93518
9.481477,3.143699,4.562763,-8.939819,-1.394972,3.969429,-8.961368
9.514832,3.967483,2.965774,-8.311768,-1.197293,3.920795,-8.997881
9.548124,1.487601,6.356383,-8.304286,-1.000213,4.009832,-9.0528
9.581493,5.391785,4.704475,-8.502263,-1.522467,4.008336,-8.942513
9.614815,-0.191543,4.449334,-8.21465,-1.547458,4.076872,-8.962565
9.648117,-0.418851,5.169116,-8.109451,-0.806725,3.282717,-9.24539
9.681496,-1.353969,4.624865,-8.424449,-0.991385,4.16995,-9.063574
9.714779,-2.5357,5.763648,-8.8849,-1.623476,3.171084,-8.724932
9.74816,-0.864038,6.335583,-7.894863,-2.22953,3.462289,-7.820939
9.781458,-0.323977,6.10618,-7.484542,-4.173242,3.690195,-7.764524
9.814798,-1.212706,6.136558,-6.605838,-1.834772,4.338299,-8.844197
9.84815,-1.897622,8.157187,-11.943752,-1.317606,4.504103,-9.042025
9.881462,-3.316986,7.362433,-7.795949,-2.278015,3.919897,-8.906
9.914817,-2.504574,4.950189,-8.159132,-3.116913,3.818589,-8.415021
9.948115,-0.314998,5.900122,-8.789278,-3.33614,4.535378,-7.570137
9.981476,1.30758,4.950189,-8.582322,-2.520586,4.472828,-8.312067
10.014831,1.741994,4.933129,-8.352321,-2.833639,4.457414,-8.209412
10.048132,1.64278,4.336054,-9.21202,-2.811192,4.559621,-8.022658
10.081456,0.362136,3.562699,-8.856767,-2.757022,4.779446,-8.011584
10.114778,0.413314,3.964042,-9.062826,-1.893432,4.742035,-7.957862
10.148112,0.756595,4.191499,-9.228181,-2.358822,4.132689,-8.689916
10.181453,0.383236,3.72177,-8.991596,-2.397729,4.617682,-8.381202
10.214854,0.495169,3.578561,-8.850482,-2.298815,4.442749,-8.485354
10.248122,0.166253,4.000854,-9.169671,-2.484223,4.064302,-8.142971
10.281473,0.225063,3.73853,-8.826091,-1.869489,4.153789,-8.841205
10.313907,0.286716,3.834451,-9.145129,-1.512741,4.37945,-9.421071
10.348122,0.438304,3.743318,-9.066567,-0.769763,3.974068,-10.872608
10.381447,0.425435,3.744815,-9.022422,-0.3352,3.573623,-13.631275
10.414791,0.23479,4.022253,-8.98157,-1.888045,2.779767,-18.250155
10.448128,1.338706,3.426524,-8.988004,-2.958142,-3.216874,-30.115044
10.481495,0.734298,3.841484,-8.821901,11.564856,-17.923035,-23.141234
10.514754,-0.263821,3.929175,-9.333231,3.325366,-15.384941,-17.718772
10.548147,0.38548,4.118922,-9.289086,0.770811,-7.001793,-11.8818
10.581467,0.01661,3.767411,-8.841055,-4.57668,5.623582,-9.994652
10.614793,0.393262,4.053678,-8.915577,11.800843,34.470103,2.863418
10.648145,0.20516,3.661763,-9.221896,-31.975855,35.80432,-2.576552
10.681445,0.438155,4.754007,-9.641495,8.280044,3.51227,-7.336096
10.71479,8.877867,10.731794,-21.057905,2.299713,2.42227,-9.631619
10.748209,31.469762,-2.625934,-8.069646,-0.7753,3.815596,-10.239468
10.781443,5.107613,-6.574114,-15.031784,-0.080957,6.837785,-10.774442
10.814803,-7.217878,-1.388088,-13.996254,-4.619927,1.057377,-7.098612
10.848145,-4.964554,8.763241,-3.711594,-4.636986,2.772285,-7.402986
10.881347,-2.399674,7.519109,-2.435289,0.331309,3.946683,-9.384708
10.914816,-4.26228,3.617469,-3.309952,-2.690131,3.888023,-8.373121
10.948126,-3.653832,5.290177,-5.908352,-2.108319,4.475372,-8.721939
10.981574,2.318717,4.619029,-10.908672,-2.90876,4.054576,-8.080719
11.014846,3.69663,2.901876,-7.063895,-1.474282,4.050386,-8.238742
11.04812,6.221106,6.68904,-10.229293,-2.04098,5.229572,-8.912884
11.081627,2.971759,4.33785,-8.981719,-0.281927,4.343686,-9.548567
11.114797,1.185172,4.267817,-10.009317,-1.058873,4.229508,-8.973938
11.148142,-1.990251,5.137392,-9.619647,-0.748813,4.238337,-9.290283
11.181429,-2.51041,4.612145,-8.184571,-1.417268,4.023899,-8.783592
11.214799,-1.515135,5.66219,-7.415556,-1.042113,4.41312,-8.97319
11.248154,-2.042926,6.607484,-9.135552,-2.344306,4.27919,-8.287526
11.281518,-0.328017,7.236134,-6.439136,-2.549168,4.05697,-8.157336
11.314508,-2.322907,8.736155,-6.464725,-1.875026,4.678287,-8.28139
11.34812,-3.589036,7.77859,-6.816536,-2.227585,4.704026,-8.282737
11.381466,-4.491084,8.941615,-7.007929,-2.407156,4.91607,-7.920751
11.414815,-2.838128,8.015176,-7.27579,-2.467463,4.985355,-7.928832
11.448119,0.256189,4.321988,-10.223756,-1.648766,4.951835,-8.615094
11.481435,0.927337,3.753195,-8.136087,-1.89448,4.701033,-8.71311
11.514828,-0.562059,3.233934,-9.056241,-2.326349,4.444844,-9.250029
11.54812,-0.206358,3.894757,-9.951555,-2.450852,3.832356,-10.644552
11.581456,1.017722,3.326862,-8.523064,-3.190238,4.11563,-15.289918
11.614815,-0.031575,3.379087,-8.898667,1.234405,-6.179805,-23.34415
11.648193,-0.135128,3.888771,-9.648229,-3.683311,-20.027763,-24.687944
11.681455,0.376502,3.697827,-8.847639,-3.791054,-18.586701,-17.075158
11.714825,-0.031874,3.663708,-8.930242,-6.873549,-9.004615,-11.663171
11.748177,-0.1465,4.046944,-9.528664,-2.006263,1.684082,-12.260546
11.781455,0.164009,3.8138,-9.022123,2.691628,18.648205,-11.893621
11.814883,0.187203,3.74242,-8.923807,1.190559,60.3721,18.053524
11.848152,0.059408,3.693637,-9.181642,-9.007757,42.813895,-20.919635
11.881455,-0.433665,5.825301,-12.964915,-2.446213,0.316196,-10.564642
11.914777,7.606351,4.453224,-14.274441,0.990636,1.611804,-8.917971
11.948119,-1.094638,3.446876,-11.256591,-3.242613,3.630488,-7.994974
11.981454,8.438366,-7.846827,0.500406,-2.474496,3.124395,-8.312815
12.014776,-8.824445,17.697673,-16.306442,-0.604258,3.670442,-9.062078
12.048104,-0.856556,0.583458,-7.15832,-0.996622,4.077471,-9.026612
12.08148,-6.358329,9.652718,-0.72098,-1.784791,3.992623,-8.806637
12.114837,-2.834836,9.887059,-4.294004,-0.921501,3.880092,-8.980522
12.148144,0.107593,7.783528,-7.596325,-1.299799,3.768608,-8.936976
12.181491,2.850848,6.026121,-8.021311,-1.600731,3.824275,-8.946853
12.214771,5.523022,4.593889,-8.489394,-1.138334,3.786116,-8.875922
12.248123,2.070909,4.417161,-8.356062,-1.328081,3.955362,-8.855421
12.281457,-1.198191,3.33195,-8.582771,-1.305485,3.911816,-8.794217
12.314769,0.15488,4.92879,-8.590852,-1.435525,3.858394,-8.803195
12.348224,1.227371,7.570736,-10.030716,-1.3203,3.851959,-8.922311
12.381467,-0.151139,8.815316,-6.810699,-1.450639,3.865577,-8.878765
12.414829,-1.471439,7.936314,-5.849842,-1.365043,3.982448,-8.860509
12.448147,-0.953674,8.854373,-5.97629,-1.298452,3.724314,-8.84719
12.481488,-4.068941,9.254518,-6.724355,-1.235452,4.0655,-8.94775
12.514638,-5.756764,10.665502,-6.914103,-1.23216,3.975863,-8.863801
12.548152,-4.794859,11.587003,-5.845353,-1.287528,3.982448,-8.829532
12.581455,-4.08196,10.890714,-6.482233,-1.24907,3.98574,-8.873079
12.614811,-0.163111,2.623989,-10.603699,-0.496066,3.977659,-9.116099
12.648121,2.008208,4.397707,-8.501216,-1.304138,4.164264,-9.22025
12.681486,-0.118368,3.873807,-9.921926,-1.804095,3.104642,-10.164497
12.714822,0.100111,3.684658,-8.541619,-3.775192,3.17692,-11.960063
12.748083,0.618175,3.590683,-9.086918,-6.064729,3.961797,-12.675955
12.781538,-0.190495,3.635426,-9.556049,-8.612251,0.804181,-15.614044
12.814833,0.096669,3.437747,-8.897919,-8.875174,-7.927185,-14.512972
12.848118,0.243918,3.758732,-9.272924,-5.355122,-9.5556,-12.263539
12.881471,0.039057,3.752447,-9.179996,-3.463785,-5.753322,-12.54382
12.914813,0.144705,3.717729,-9.083477,0.808222,0.715144,-12.627171
12.948118,0.166852,3.760228,-9.168923,-0.488135,3.959403,-12.096388
12.981439,-0.153384,3.732095,-9.133457,-2.075248,9.669478,-9.943774
13.014792,0.101757,3.800781,-9.204687,1.09374,13.466518,-6.805761
13.048119,0.225362,3.666701,-9.038434,-0.145902,21.34911,3.527533
13.081439,0.021998,3.565991,-9.108916,12.552499,43.274944,26.637342
13.114788,0.279383,3.005728,-12.108808,-18.851869,30.43558,-6.154066
13.148164,1.947902,2.855786,-14.270849,9.536146,8.743787,-9.842615
13.181453,6.157358,2.370344,-13.428808,-2.928213,5.231667,-9.653466
13.214814,3.191734,1.998631,-18.310461,-1.816815,2.04936,-8.251312
13.2482,1.425499,-2.478835,-6.964981,-5.281049,2.387254,-8.424
13.281479,-2.667236,3.714288,-10.244706,-0.636581,1.816366,-8.787183
13.314787,-0.697186,6.858136,-8.502413,-1.368036,3.186198,-8.839409
13.348111,3.133523,6.394243,-4.77765,-2.022424,4.172943,-8.97319
13.381457,2.031553,8.247571,-8.257747,-1.475031,3.776389,-9.008655
13.414794,-1.204626,6.170228,-7.146049,-1.490294,3.685556,-8.992793
13.448193,-0.539164,5.365448,-7.561907,-1.895677,3.674782,-8.877568
13.48146,0.684168,4.848731,-7.532128,-1.677348,3.342724,-8.78868
13.514784,0.807024,4.977274,-8.177538,-1.700094,3.550429,-8.867242
13.5481,-0.395955,6.057098,-8.255502,-1.883256,3.644704,-8.854373
13.581461,-0.929582,6.86921,-8.941615,-1.53384,3.712642,-8.984563
13.614794,-1.652806,7.205906,-7.92524,-1.413228,3.645153,-9.020028
13.648107,-1.050344,7.228802,-7.429772,-1.6347,3.81365,-8.866045
13.68149,-1.479071,7.152634,-7.139615,-1.704882,3.913163,-8.730469
13.714475,-1.171255,6.287248,-7.235386,-1.680041,3.865876,-8.764438
13.747106,-0.861943,6.871754,-8.099873,-1.68079,3.869916,-8.849285
13.781477,0.09218,7.000896,-7.40972,-1.933088,3.878596,-8.803046
13.814764,-1.377763,7.82064,-7.641218,-1.614348,3.834301,-8.721041
13.848171,-1.268374,8.610455,-7.255887,-1.784492,3.973768,-8.839559
13.881484,0.505644,6.800374,-8.46575,-1.831929,4.062806,-8.604469
13.914787,1.020116,3.591431,-9.008655,-1.534588,4.040659,-8.810528
13.948118,-0.395057,3.394351,-8.962116,-1.593997,3.903436,-8.933385
13.981494,-0.485741,4.118922,-9.193763,-2.077792,3.926182,-8.900762
14.014788,0.830069,3.374897,-8.93533,-1.885651,3.6462,-9.187329
14.048146,0.937363,3.806168,-9.139293,-2.110564,3.855551,-9.422418
14.081476,-0.608149,3.427123,-9.141688,-1.70159,3.151929,-12.138138
14.114812,0.288362,3.701568,-9.269782,-3.757385,1.408888,-13.027167
14.148098,-0.035465,3.590234,-9.198103,-8.353219,-9.325,-16.614407
14.181524,0.12166,3.627345,-9.120887,-3.804971,-11.262577,-16.116994
14.214832,-0.055518,3.792102,-9.198552,-1.604172,-6.025373,-15.060216
14.248105,0.00838,3.731646,-9.163685,-1.094339,-0.761683,-12.961773
14.281491,0.076767,3.737333,-9.106821,-0.740882,2.892449,-9.86581
14.314815,-0.046539,3.675231,-9.107868,-1.29486,6.827011,-8.783891
14.348118,0.055966,3.695133,-9.275618,-0.783381,7.814504,-8.389433
14.381451,-0.128543,3.44508,-8.992045,-1.953439,8.833573,-1.230664
14.41479,0.052824,3.895655,-9.142585,-3.934113,15.846141,3.536811
14.448118,-0.078413,3.854204,-9.226386,14.30811,35.915205,26.934234
14.481458,-0.161764,4.779446,-11.077469,-12.597691,28.727256,-22.968696
14.514831,1.599234,0.922998,-11.868631,1.479221,-1.928449,-8.630507
14.548122,1.762345,6.212128,-10.949823,0.534974,1.389285,-8.99803
14.581526,2.621744,2.641797,-9.887957,-2.616806,2.911304,-8.836266
14.61479,-4.844241,9.961731,-18.065645,-2.489909,2.689832,-8.445549
14.648121,0.214588,2.669181,-8.334962,-1.271516,3.814099,-8.990249
14.681446,4.351168,4.876564,-5.999784,-2.070759,3.342275,-8.847639
14.714786,4.977873,3.753344,-4.158428,-1.704134,3.496108,-8.954484
14.748121,4.159326,4.605112,-7.652142,-2.006712,3.44523,-8.845095
14.781439,0.762431,3.455854,-7.915064,-1.443456,3.408118,-8.898518
14.814855,1.628863,4.848431,-9.112058,-1.363247,3.39914,-8.882506
14.848137,0.861195,4.441552,-7.442043,-1.552246,3.831159,-8.994738
14.881454,-1.398264,5.962823,-9.229378,-1.577087,3.651587,-8.895675
14.914786,-0.300034,7.836352,-9.411045,-1.39542,3.722368,-9.01928
14.948246,-0.20965,7.693742,-6.234275,-1.465154,3.671639,-9.026612
14.981455,-1.539826,9.951256,-5.023364,-1.572747,3.619264,-8.914979
15.01479,-6.162895,14.381286,-5.658748,-1.347684,3.86827,-8.979325
15.048146,-8.068299,13.336479,-5.586919,-1.486852,3.789857,-8.933684
15.081456,-3.799135,12.606221,-9.96652,-1.548655,3.855999,-8.828934
15.114827,2.068963,8.793768,-5.863609,-0.883791,3.859591,-8.809929
15.148007,1.916178,3.051519,-8.183374,-1.645324,3.844028,-8.896124
15.181452,-0.504297,4.243275,-12.826196,-1.686027,3.846722,-8.868889
15.214763,0.814058,3.339881,-8.603572,-1.69321,3.79704,-9.102182
15.248124,1.270169,3.870664,-8.529798,-1.516182,3.61702,-9.613362
15.281511,-0.549639,3.59996,-9.457584,-2.261703,2.06193,-10.504187
15.31473,0.506092,3.606994,-9.208428,-3.160459,3.219119,-11.102609
15.34812,0.118966,3.518255,-9.202592,-2.998695,-3.455705,-12.298705
15.381454,0.621168,3.687352,-8.997881,-3.677026,-9.014042,-12.785344
15.414788,-0.193937,3.762772,-9.421221,-5.576744,-3.779382,-14.059104
15.447591,0.367074,3.715784,-9.110861,-3.091025,-2.332934,-11.128647
15.481454,0.011373,3.765166,-9.122234,-1.365941,0.853264,-10.566288
15.514791,0.147698,3.828316,-9.321259,-1.261191,0.986596,-10.133371
15.548161,0.005537,3.646799,-8.975734,-3.069476,1.21974,-8.907945
15.581454,0.51971,3.8138,-9.216509,-0.133482,8.002306,-13.451105
15.61479,0.072876,3.536961,-8.992494,-2.255867,5.158342,-7.486936
15.648253,0.408675,3.808114,-9.190322,3.61702,10.467973,-6.149128
15.681536,0.219377,3.614775,-9.071355,1.802599,13.709987,1.81472
15.714795,0.52824,3.577065,-8.851829,2.692226,20.500784,19.373225
15.748101,1.231861,2.156355,-9.197355,-19.707527,37.687576,-13.526226
15.781532,1.443905,3.462439,-10.67044,5.366046,3.872011,-7.352706
15.814786,4.757598,4.488839,-14.015409,-0.528389,4.317947,-9.547669
15.848121,-1.013083,3.489075,-13.860379,-0.9429,3.821432,-8.951192
15.881485,0.231049,-0.368271,-7.884088,-1.166317,3.773097,-8.898219
15.914782,0.402091,2.076146,-5.56133,-1.528004,3.987835,-8.688419
15.947404,1.485954,4.379301,-6.674824,-1.729723,3.954465,-8.663878
15.980985,-0.462546,4.461455,-7.26726,-1.605669,4.028837,-8.952689
16.014769,0.031425,4.263028,-7.953074,-2.094403,3.956709,-8.656246
16.047347,-0.003442,4.34623,-8.797958,-1.667322,3.785069,-8.752317
16.081454,1.107059,4.932082,-9.168174,-1.413827,3.8349,-8.898069
16.114773,0.432618,5.0922,-8.132795,-1.693509,3.925733,-8.767281
16.148123,-0.692996,5.937234,-7.843535,-1.825943,4.039312,-8.661483
16.181538,-1.084014,7.12061,-8.14761,-2.009256,4.084953,-8.570052
16.214814,-0.355402,7.47272,-8.126809,-1.957479,4.047393,-8.658191
16.248123,0.300782,5.814227,-7.826027,-1.792423,4.090789,-8.638289
16.281525,0.124802,5.745541,-8.631555,-2.009705,4.14092,-8.502114
16.314771,-0.209201,5.428448,-8.810528,-1.900765,4.078818,-8.635146
16.348156,0.455214,5.469599,-8.884751,-1.733314,4.114732,-8.707723
16.381454,0.178674,5.026207,-7.977316,-1.898071,4.324232,-8.534137
16.414769,-0.338193,4.797703,-7.968637,-1.939971,4.080763,-8.749773
16.447151,0.793706,5.32699,-8.138631,-1.021762,3.89775,-9.025415
16.481452,0.898456,5.549808,-7.227156,-1.652357,3.832954,-8.831627
16.515182,-2.212321,10.529327,-6.788103,-1.950147,3.708302,-8.712212
16.548119,-4.180725,4.521462,-6.936998,-1.81891,3.955213,-8.714158
16.581459,0.80448,4.827481,-10.563745,-1.058275,3.811256,-9.109664
16.61476,1.632156,3.860489,-9.591814,-1.502415,3.964341,-9.051752
16.648158,-0.265616,3.467227,-8.558978,-1.737953,3.911367,-9.280556
16.681458,0.351362,3.814399,-9.439926,-1.733913,3.772349,-10.72895
16.714851,0.917461,3.578412,-9.238058,-0.588246,3.433557,-12.781453
16.747228,-0.231198,3.39495,-8.929344,-3.036555,-7.031123,-16.738761
16.781453,0.458057,3.76352,-8.935629,-4.23714,-14.797293,-16.015536
16.814773,0.264269,3.712791,-9.177003,-4.055623,-8.591899,-16.880922
16.848148,0.166104,3.844327,-9.093802,-2.743554,-3.965837,-14.243016
16.881456,0.239129,3.935759,-9.23282,-2.308691,2.092906,-9.774378
16.914802,0.101757,3.681366,-9.002071,-2.119094,11.027937,-9.927612
16.948104,-0.063598,3.78851,-9.146775,-0.136923,10.771748,-0.044145
16.981455,0.02918,3.874256,-9.272027,2.051306,27.433593,12.878871
17.014881,0.653491,3.289152,-9.015239,-14.742673,8.105859,-26.390581
17.048159,1.695006,2.704796,-8.882356,-11.478213,2.741459,-6.677068
17.081438,1.247573,3.691542,-11.104853,-4.191649,1.482363,-9.104875
17.114788,8.345737,3.896553,-13.472205,0.043546,2.438133,-9.077192
17.148159,4.331864,-1.574693,-12.634953,-1.611655,3.356791,-8.715056
17.181459,1.699645,1.87338,-5.718007,-2.534802,3.773696,-8.593845
17.214786,0.078114,5.56567,-7.924043,-1.220488,3.699024,-8.926651
17.2482,-2.088267,4.072832,-7.691647,-1.158386,3.644853,-8.867841
17.281458,-3.04254,3.074115,-9.505619,-1.60118,3.795244,-8.891634
17.314788,2.049659,1.761148,-10.669542,-1.255355,3.972571,-8.980971
17.348107,4.779596,1.824596,-9.188825,-1.205673,3.888921,-8.97708
17.381514,6.121145,2.843216,-9.170868,-1.516033,3.894009,-8.931888
17.414667,2.815233,4.268116,-9.91624,-1.582025,3.575269,-8.859311
17.448121,1.578733,4.319593,-9.915641,-1.278699,3.796142,-8.879513
17.481459,0.399547,6.212577,-8.98546,-1.177241,3.744067,-8.979175
17.514787,-1.929795,8.485354,-9.084225,-1.439116,3.650839,-8.863651
17.548121,-1.845846,8.564515,-7.340435,-1.342447,3.740625,-9.013593
17.581459,-2.162191,9.577897,-4.915172,-1.359955,3.800931,-8.941166
17.614788,-4.316152,10.925581,-6.425369,-1.432981,3.882486,-8.839708
17.64812,-5.402859,12.834427,-3.297831,-1.283637,3.454807,-8.817411
17.681494,-3.054362,9.779765,-8.268521,-1.555838,3.443733,-8.864998
17.714787,2.244794,5.678351,-5.09205,-1.11469,3.858543,-9.044719
17.748123,3.010218,7.064195,-8.711763,-1.620334,3.935909,-8.962266
17.781512,-2.18763,4.168903,-8.492537,-1.905104,3.945336,-9.09036
17.814794,0.80867,3.559407,-9.380967,-2.258262,2.755825,-9.562035
17.84812,0.181816,3.31519,-8.580676,-2.21277,3.10554,-9.499634
17.881445,0.260828,4.040659,-9.223393,-3.730299,-0.639424,-10.42727
17.914884,-0.059109,3.823976,-9.169222,-4.573837,-3.099255,-11.154685
17.948122,0.259481,3.840437,-9.100087,-5.58647,-1.320749,-12.67805
17.981435,0.178374,3.824874,-8.993092,-4.37526,-3.327461,-12.642435
18.014813,0.358545,3.905531,-9.247036,-5.461668,-2.143486,-13.041233
18.048147,0.501454,3.698425,-8.912435,-5.268629,-6.164691,-11.374959
18.081453,-0.011223,3.844776,-9.286841,-6.954506,-6.527575,-10.296033
18.114787,0.370666,3.852857,-9.1363,-4.435866,1.652208,-13.93101
18.148122,0.460751,3.742869,-8.766084,0.181816,5.87992,-7.12495
18.181443,0.325473,4.073131,-9.042624,9.834086,21.283716,1.656547
18.214787,-0.205011,4.085851,-9.33353,15.572294,41.501825,24.488919
18.248102,0.305122,3.340928,-8.560025,-22.51857,17.772494,-19.807638
18.281453,1.044059,4.070737,-9.360765,8.072339,7.753749,-10.098205
18.31479,4.590148,0.637329,-13.336628,-1.746034,4.541663,-9.767195
18.348125,0.792958,0.72502,-16.775573,-3.096561,3.838042,-8.491788
18.381452,1.950147,-0.089486,-5.25995,-2.257962,4.420153,-8.747977
18.414775,0.010924,3.544293,-6.86921,-0.942751,4.070139,-9.033196
18.448161,0.05881,1.765188,-9.030653,-1.659989,4.063704,-8.941016
18.481534,-0.237633,2.374385,-9.398924,-1.456475,3.864379,-8.824445
18.514784,0.154432,4.133437,-10.160307,-1.245628,3.882636,-8.953437
18.548117,0.723973,5.333125,-9.082878,-1.182628,3.842681,-8.950743
18.581414,3.66715,3.684509,-9.539888,-1.288276,3.854802,-8.919468
18.614791,3.761425,2.88751,-8.58307,-1.523814,3.784769,-8.766832
18.648122,2.858779,3.716532,-8.987106,-1.549702,4.093184,-8.722538
18.681531,1.696951,5.647974,-8.781048,-1.426845,3.994718,-8.889539
18.71479,0.971033,5.776068,-8.395568,-1.469194,3.953417,-8.82235
18.74815,0.581512,5.974944,-7.931824,-1.438967,3.91436,-8.946104
18.78153,0.062251,6.869509,-5.95145,-1.847193,3.970776,-8.769975
18.814791,-1.635897,8.255203,-7.922995,-1.28229,4.035571,-8.862005
18.848158,-2.290136,7.994525,-7.251548,-1.494185,4.024797,-8.722388
18.881433,-0.487537,7.140512,-7.057311,-1.033285,4.013873,-8.806936
18.914792,-0.13408,7.397001,-8.319549,-1.506605,3.953417,-8.765485
18.948126,-0.059109,5.373529,-5.848645,-1.528453,3.928127,-8.826839
18.981571,1.039121,7.582258,-7.611289,-1.511543,4.067894,-8.715505
19.014788,-1.297704,8.382549,-12.439669,-1.566612,4.047393,-8.889539
19.048113,1.16512,4.472828,-8.3613,-1.529052,4.110991,-8.881159
19.081481,1.087006,4.886141,-9.52642,-1.364893,3.908075,-8.963313
19.114791,-0.216084,3.613877,-8.413076,-2.401919,4.108896,-8.829682
19.148215,0.690303,4.292358,-9.248682,-1.976035,3.948928,-9.106372
19.181467,-0.479306,4.077471,-9.24135,0.182415,4.008336,-9.390993
19.214793,0.138869,3.879194,-9.044719,-1.128757,3.86827,-10.793596
19.247457,0.37725,3.611184,-8.885649,-2.865812,3.761126,-12.972697
19.280598,0.045342,3.981251,-9.251226,-5.976739,-5.175551,-17.1416
19.314891,0.066292,3.800033,-9.270829,-5.028901,-15.939368,-18.044844
19.34812,0.601864,3.609089,-8.611203,-6.128178,-9.35867,-13.690085
19.381506,0.022147,3.883384,-9.301806,-3.047179,1.405895,-15.363243
19.414788,0.277588,4.047093,-9.325,0.681175,7.059256,-12.886951
19.448124,0.035765,3.763819,-8.987256,0.056266,8.800053,-11.391719
19.481447,0.004938,4.043951,-9.418078,0.390867,5.698403,-6.313436
19.514824,0.340587,3.793449,-8.834471,-1.30773,7.466285,-5.623432
19.548125,0.062551,4.00669,-9.206633,0.032622,10.660713,-1.180683
19.581432,0.203814,4.04844,-9.124179,7.696436,26.051341,9.693272
19.614827,0.120612,3.493864,-8.995935,-20.133411,24.27897,-39.241618
19.648116,2.088716,2.884517,-9.732478,-9.106372,6.840927,-10.1844
19.681454,2.947816,2.214416,-10.472013,1.146415,9.411195,-13.948369
19.714823,6.444374,7.357794,-13.962286,0.776647,5.831735,-12.144872
19.747211,2.918037,-2.525075,-11.302532,-1.802,2.547372,-8.297103
19.781453,5.700049,1.345889,-4.637884,-5.4693,3.018897,-7.942898
19.814813,0.20097,6.165589,-5.927806,-3.194129,0.713647,-7.689852
19.848125,-5.310679,4.986253,-7.451919,0.759288,0.384283,-9.120887
19.881455,-4.699237,4.094231,-10.629887,-4.945849,1.643977,-7.658876
19.914791,0.244517,4.465196,-8.887744,-5.191712,1.914981,-7.834856
19.948148,4.799349,4.240731,-8.418763,-3.534566,2.174162,-8.671061
19.981452,3.576616,5.056435,-8.353219,-4.370322,1.791525,-7.789514
20.014801,-0.742528,5.135447,-8.329725,-2.917589,1.891188,-8.30249
20.048221,-1.319701,5.058979,-8.643676,-3.450018,3.209093,-8.806338
20.081455,-0.284471,5.606074,-8.700391,-3.750202,4.519217,-9.360017
20.114842,-0.56565,6.49181,-8.547156,-3.598614,2.259309,-8.099873
20.148125,-0.351661,6.319122,-8.680787,-6.011008,2.159198,-6.449312
20.181454,-0.206507,6.269291,-7.696286,-6.741265,2.196758,-6.685448
20.214785,-0.231348,7.086342,-9.030204,3.463336,8.304136,-11.330066
20.248162,-0.408825,6.615715,-7.488283,-0.845333,4.986552,-9.077341
20.281466,0.233892,6.262707,-8.179783,-1.949548,4.179378,-8.478021
20.314793,0.681474,5.412286,-8.142522,-1.674355,4.515027,-8.454378
20.348156,1.642331,4.510089,-8.084011,-1.699046,4.397258,-8.57903
20.381517,3.004232,4.021355,-8.791074,-1.713861,4.450232,-8.534736
20.414787,2.403415,3.580956,-8.499719,-1.711167,4.280237,-8.589505
20.448142,1.761447,3.712791,-8.427442,-1.763692,4.344434,-8.460363
20.481484,0.924494,4.582666,-8.463356,-1.602826,4.305677,-8.651607
20.514786,-0.719633,4.732309,-6.603294,-1.704433,4.324532,-8.601327
20.548197,0.140664,7.069881,-11.832417,-1.561375,4.365534,-8.602674
20.581457,-1.153597,3.876052,-5.164028,-1.574543,4.266021,-8.698595
20.614854,0.302428,4.463699,-9.039332,-1.604172,4.351767,-8.532641
20.648099,1.082218,5.023065,-10.563146,-1.582325,4.250009,-8.656246
20.681459,0.731904,5.064516,-6.820726,-1.495083,4.291161,-8.652654
20.714785,-0.800889,3.557611,-10.572573,-1.678545,4.23699,-8.635296
20.747516,1.093142,3.984992,-9.204388,-1.679144,4.284876,-8.595042
20.781455,0.618774,4.247016,-9.306594,-1.642631,4.255845,-8.620032
20.813829,-0.024392,3.688699,-8.675251,-1.636196,4.339346,-8.588907
20.848118,0.881547,4.14511,-8.961368,-1.58427,4.358201,-8.603572
20.881455,-0.111484,3.917353,-9.193763,-1.597588,4.317498,-8.581275
20.914812,0.585254,4.001303,-9.060581,-1.543567,4.436913,-8.707274
20.948119,0.401642,3.943391,-8.986807,-1.410534,4.211551,-8.694704
20.981453,0.155778,3.936657,-9.049956,-1.45438,4.292059,-8.677495
21.014813,0.212343,4.004296,-9.042923,-1.488947,4.320192,-8.640833
21.048118,0.143957,3.996065,-9.057139,-1.614198,4.322437,-8.598783
21.081559,0.334153,4.042903,-9.046964,-1.489247,4.369873,-8.723585
21.11477,0.180619,3.978407,-9.041427,-1.533391,4.338748,-8.625419
21.148121,0.260828,4.000555,-9.063873,-1.422207,4.226815,-8.648614
21.181501,0.265167,3.973918,-9.022422,-1.438967,4.360895,-8.684079
21.21481,0.235239,3.924087,-9.035142,-1.331972,4.077621,-8.898667
21.248121,0.286866,3.978856,-8.968551,-1.454081,4.214095,-8.712661
21.281451,0.160118,4.034972,-9.120438,-1.447646,4.280387,-8.627066
21.314796,0.253495,3.982597,-9.033945,-1.479221,4.28323,-8.704581
21.34814,0.162662,3.962246,-9.016436,-1.446748,4.235793,-8.678543
21.381459,0.300034,4.043352,-9.130764,-1.435525,4.121616,-8.65445
21.414811,0.266215,3.931868,-9.005363,-1.467848,4.072832,-8.633201
21.448161,0.207255,3.958206,-9.041427,-1.526358,4.177732,-8.656695
21.481454,0.231049,3.997262,-9.110113,-1.450639,4.589699,-8.648165
21.514789,0.208453,3.917652,-9.021824,-1.375817,4.465495,-8.739447
21.548128,0.300034,3.975714,-9.029006,-1.424451,4.256444,-8.727326
21.581453,0.271303,3.937405,-9.06537,-1.258946,4.374961,-8.592947
21.614887,0.259631,3.894158,-8.977978,-1.378511,4.235195,-8.775661
21.647769,0.25574,3.990977,-9.080334,-1.45019,4.299092,-8.5708
21.681455,0.375305,3.921393,-9.050555,-1.168711,4.30014,-8.507202
21.714858,0.133482,3.892812,-8.963762,-1.147163,4.281883,-8.980821
21.748106,0.388323,4.010431,-9.221747,-0.992133,4.223822,-8.655498
21.781492,0.096669,3.842232,-9.030802,-1.805592,4.304779,-8.85168
21.814785,0.34792,3.967483,-9.029904,-1.306233,4.145409,-8.710417
21.848153,0.131536,3.980203,-9.036638,-1.171555,4.322736,-8.699044
21.881469,0.266065,3.959253,-9.034094,-1.735709,4.314954,-8.794516
21.914792,0.307217,3.997562,-9.087816,-1.850934,4.103958,-8.590253
21.94833,0.258134,3.976163,-9.042774,-1.516332,4.089442,-8.51603
21.981478,0.236885,3.987985,-9.115949,-1.31162,4.131492,-8.654301
22.014788,0.336098,3.916904,-8.98965,-1.818611,4.212748,-8.561522
22.048175,0.201719,3.983795,-8.895375,-1.607465,4.139573,-8.588907
22.081478,0.16745,4.099469,-9.1366,-1.527106,4.173691,-8.795713
22.114786,0.180469,4.037067,-8.967354,-1.506156,4.187459,-8.710417
22.148158,0.007781,4.016566,-9.072253,-1.505109,4.380348,-8.691861
22.181455,0.541857,4.041257,-9.010151,-1.108106,4.318995,-8.904354
22.214824,0.295395,3.945785,-8.874874,-1.425199,4.213347,-8.749324
22.248106,0.106845,3.972571,-9.022871,-1.828487,4.237439,-8.536681
22.281494,-0.061803,4.125506,-9.177602,-1.33287,4.182221,-8.752317
22.314808,0.235089,4.018661,-9.068063,-1.169909,4.049188,-8.931439
22.348138,0.301979,3.965388,-8.891485,-1.097182,4.285175,-8.546558
22.381453,0.255441,4.09468,-9.158597,-0.648253,4.555431,-8.790925
22.414791,-0.023793,3.909572,-8.973339,-1.619735,4.020307,-8.714307
22.448123,0.4193,4.044101,-9.061928,-1.44181,4.585808,-8.793618
22.481205,-0.065693,4.077621,-9.128369,-2.00746,4.201375,-8.435523
22.514156,0.266514,4.069989,-9.059384,-1.27825,4.74413,-8.732564
22.548124,0.18436,3.968232,-8.995187,-1.887147,4.345332,-8.379855
22.581455,0.307367,3.968531,-8.93952,-1.80619,4.145708,-8.544313
22.614848,0.152037,3.99397,-9.065819,-1.708922,4.364636,-8.580227
22.648128,0.312754,4.016566,-9.064322,-1.300098,4.221577,-8.763839
22.681456,0.155479,3.949975,-8.965408,-1.358159,4.03198,-8.747229
22.714787,0.271901,3.996215,-9.059683,-2.145281,3.796292,-8.458119
22.747241,0.181816,4.012376,-9.038584,-1.750822,4.06131,-8.580975
22.781517,0.275942,3.986638,-9.022721,-1.539527,4.254349,-8.668666
22.814812,0.081106,3.986638,-9.059833,-1.627068,4.377505,-8.655049
22.848126,0.396404,4.016866,-9.009104,-1.494783,4.411175,-8.677196
22.881455,0.292702,3.986937,-9.002819,-1.313117,4.274401,-8.714457
22.914823,0.190047,3.960301,-9.010301,-1.60103,4.029885,-8.689167
22.948122,0.243319,4.000106,-9.065669,-1.608961,4.29161,-8.679889
22.981522,0.205759,3.956709,-9.03589,-1.744388,4.181922,-8.620631
23.01479,0.358545,3.978856,-8.978427,-1.720744,4.23295,-8.608809
23.048122,0.141562,3.98978,-9.064023,-1.60956,4.123561,-8.681984
23.081456,0.293001,4.006241,-9.033196,-1.547308,4.278142,-8.688868
23.114826,0.269357,4.013274,-9.046964,-1.560926,4.242078,-8.658191
23.148118,0.149194,3.966137,-9.034244,-1.572448,4.22023,-8.639486
23.181454,0.276091,3.993671,-9.019878,-1.553743,4.214993,-8.664027
23.214812,0.267562,4.009234,-9.071206,-1.499871,4.282332,-8.629609
23.248157,0.266664,3.983795,-9.012396,-1.514686,4.286522,-8.660586
23.281481,0.195733,3.967334,-9.018232,-1.549702,4.256145,-8.640084
23.314781,0.266514,4.006989,-9.063873,-1.447197,4.246268,-8.694704
23.34816,0.241973,3.964191,-9.004016,-1.529501,4.227563,-8.620481
23.381482,0.224015,3.992474,-9.023919,-1.536833,4.274551,-8.677196
23.414763,0.261127,4.021355,-9.039033,-1.550151,4.259886,-8.651607
23.448146,0.231049,3.966286,-9.001323,-1.540125,4.237589,-8.672108
23.481441,0.236735,3.99427,-9.047263,-1.504211,4.245071,-8.657892
23.514787,0.202317,3.99816,-9.04442,-1.555838,4.11578,-8.636792
23.548123,-0.174035,4.11159,-10.939797,-1.524712,4.328871,-8.680638
23.581483,0.769614,3.135618,-7.240175,-1.617491,4.302684,-8.668367
23.614785,0.247509,4.77361,-10.143248,-1.451686,4.257491,-8.683481
23.648248,0.133033,3.902987,-8.664327,-1.582624,4.39217,-8.626617