time_tick,acc_X_value,acc_Y_value,acc_Z_value,acc_X_value,acc_Y_value,acc_Z_value
0.00902,1.485206,2.903971,-9.39638,0.307217,3.066034,-9.303302
0.037589,1.297105,2.789943,-9.370492,0.404934,3.028324,-9.285943
0.070889,1.33257,2.856983,-9.31662,0.380093,3.043588,-9.284746
0.104798,1.363397,2.853242,-9.348793,0.334751,3.019944,-9.296867
0.137765,1.350378,2.829,-9.348345,0.361837,3.027726,-9.287589
0.171177,1.340502,2.875988,-9.386354,0.361986,3.034011,-9.297915
0.204463,1.386891,2.899182,-9.365404,0.412416,3.039697,-9.293575
0.237866,1.401855,2.865513,-9.361513,0.381141,3.043588,-9.320212
0.271183,1.397515,2.898584,-9.348793,0.361986,3.002735,-9.294772
0.304512,1.413078,2.867159,-9.311981,0.344328,3.035507,-9.297316
0.337754,1.402603,2.912052,-9.398176,0.438304,3.027576,-9.297167
0.371184,1.376715,2.851895,-9.277863,0.426782,2.975201,-9.288038
0.404533,1.351425,2.878681,-9.35044,0.382787,3.008721,-9.29582
0.437901,1.422805,2.838427,-9.30854,0.411368,2.973705,-9.355228
0.471221,1.397216,2.899931,-9.2623,0.403288,3.026229,-9.281454
0.504558,1.470541,2.90023,-9.543329,0.40673,3.02174,-9.292378
0.53789,1.302343,2.893795,-9.325449,0.314101,3.054213,-9.333081
0.571261,1.451986,2.849351,-9.411793,0.38144,2.986724,-9.317219
0.604553,1.45019,2.89604,-9.317518,0.446235,3.061994,-9.299411
0.637896,1.505109,2.900978,-9.394135,0.43995,3.129633,-9.27472
0.670316,1.40799,2.918636,-9.429451,0.396853,3.063939,-9.296568
0.704592,1.375368,2.921928,-9.259756,0.31844,3.110778,-9.306744
0.73789,1.330326,2.899332,-9.259756,0.299436,3.11811,-9.278761
0.771217,1.375967,2.734276,-9.225937,0.433516,3.112723,-9.257511
0.804553,1.432233,2.902624,-9.369893,0.405682,3.108084,-9.311532
0.837929,1.457522,2.831843,-9.370342,0.231049,3.110478,-9.214264
0.871223,1.386592,2.776326,-9.285943,0.378746,3.164649,-9.286093
0.904531,1.490294,2.861772,-9.358071,0.290756,3.096861,-9.248682
0.93794,1.554341,2.898734,-9.322007,0.245863,3.099704,-9.22878
0.971229,1.499422,2.941082,-9.371838,0.367972,3.073217,-9.245689
1.004566,1.523216,2.920731,-9.404012,0.298089,3.140706,-9.254219
1.037882,1.444204,2.884218,-9.386653,0.348967,3.025182,-9.251825
1.071225,1.33691,2.839325,-9.418377,0.338792,3.056756,-9.265592
1.104606,1.422655,2.885864,-9.412691,0.281329,3.266107,-9.280856
1.13784,1.462161,2.821667,-9.289385,0.249156,3.16001,-9.287141
1.171166,1.434477,2.849202,-9.303152,0.323977,3.117212,-9.263796
1.204484,1.419064,2.755076,-9.207531,0.356001,3.102697,-9.267238
1.23784,1.457373,2.903672,-9.400271,0.175681,2.987023,-9.215312
1.271171,1.377763,2.823164,-9.33338,0.254393,3.174376,-9.263796
1.304511,1.400658,2.885415,-9.352834,0.308264,3.078155,-9.283848
1.337893,1.480567,2.87494,-9.399522,0.302129,3.209542,-9.311682
1.371173,1.532344,2.93375,-9.441722,0.500855,2.602889,-9.103529
1.404505,1.555389,2.937192,-9.453843,0.023344,2.803261,-9.127023
1.437835,1.489546,2.82496,-9.39623,0.484544,2.966821,-9.377675
1.471186,1.534139,2.847256,-9.290582,0.297041,2.925969,-9.327694
1.50454,1.389135,2.975949,-9.378123,0.119714,3.156568,-9.277114
1.537849,1.296506,3.043139,-9.237609,0.310958,3.139509,-9.298813
1.571223,0.827376,3.371007,-9.36286,0.220574,3.138162,-9.256763
1.604513,1.393774,2.86671,-9.014641,0.061503,3.358586,-9.168623
1.63789,1.008743,2.708088,-9.478684,0.309162,3.481742,-9.222644
1.671184,0.520159,2.374085,-9.753727,0.108491,3.376394,-9.197804
1.704502,0.248407,2.02422,-9.774977,0.040853,3.190388,-9.197654
1.737789,1.186818,1.619586,-9.93285,0.201419,3.536661,-9.13211
1.771185,1.437171,1.163175,-10.077106,0.164907,3.610435,-9.126723
1.804585,1.657445,0.57433,-10.462436,0.232844,3.488925,-9.127621
1.837875,1.298153,0.081106,-10.34781,0.196631,3.498802,-9.009403
1.871211,2.633417,-0.230001,-10.861983,-0.005986,3.321624,-9.15725
1.904435,3.812902,0.212643,-11.763881,0.176878,2.922976,-9.405358
1.937879,2.634015,-0.336248,-10.648592,0.726217,3.21029,-9.429002
1.971227,1.995788,0.050729,-10.930669,0.560862,3.114519,-9.324252
2.004515,1.233806,0.556971,-9.830195,0.447432,2.739962,-9.293725
2.037871,1.236649,1.141327,-9.533303,0.54051,3.022189,-9.280556
2.071198,1.858266,1.5506,-9.220549,0.514323,3.02997,-9.260354
2.104516,2.213967,2.068963,-9.250179,0.510133,3.031317,-9.323953
2.137871,2.583137,3.274637,-9.9746,0.418551,3.00513,-9.218155
2.171214,2.57326,3.136965,-8.864549,0.4609,3.081747,-9.307791
2.204537,2.716468,4.600623,-9.263048,0.590491,3.101649,-9.317219
2.237718,2.726195,4.905146,-8.634997,0.481401,3.12245,-9.362561
2.270854,0.97223,4.668112,-5.221491,0.58241,2.998096,-9.380218
2.304549,0.940506,6.457692,-4.548996,0.691799,3.128884,-9.502177
2.33788,1.287977,9.656908,-6.470411,0.792659,3.26057,-9.645685
2.371148,-0.392663,13.820873,2.052054,0.068237,3.583799,-9.769589
2.40454,-3.797938,22.314008,-19.200387,-0.952777,2.667834,-10.98065
2.437876,1.00186,3.992623,-9.301506,0.226859,-0.212942,-11.280834
2.471143,0.935717,2.962781,-9.105324,0.535722,4.641625,-13.982637
2.504519,1.567809,3.429816,-9.786649,-2.015242,1.512741,-13.401274
2.537843,1.430736,2.956945,-9.218754,-6.967076,1.316559,-17.410658
2.57115,1.5087,3.068279,-9.362561,-14.15727,-2.601543,-14.860293
2.604517,1.298751,2.851446,-9.269782,-1.555239,-7.885435,-9.757468
2.637842,1.529052,2.97131,-9.353732,-0.848476,-5.727733,-10.416496
2.671101,1.624673,3.01755,-9.365254,-2.478985,-0.849373,-13.540442
2.704265,1.490743,2.838727,-9.198702,2.309589,2.450254,-13.895545
2.737852,1.535187,2.859527,-9.271877,1.552246,4.850526,-13.55406
2.771637,1.511244,3.004381,-9.282951,-2.302556,6.42477,-11.079564
2.804558,1.519923,3.117512,-9.339815,1.087006,8.133543,-10.422631
2.837859,1.517679,3.022788,-9.354031,3.980951,27.796626,-13.29383
2.871164,1.520522,3.040146,-9.384857,0.977318,24.212079,14.120308
2.90448,1.497477,2.994505,-9.373036,15.813369,53.664355,10.461089
2.937888,1.504959,2.648979,-9.298962,-0.244816,-10.155219,-15.941762
2.971148,1.813224,2.739364,-9.555301,4.247465,5.433984,-9.872993
3.004503,1.19849,2.545726,-10.045531,0.552631,3.390011,-9.058935
3.03785,1.069348,2.236264,-9.698359,0.993779,3.325515,-9.462672
3.071198,1.076681,2.213818,-10.453308,0.923746,3.048376,-9.38381
3.104503,1.750074,0.256039,-13.503331,0.873915,3.443135,-9.099339
3.13785,0.936017,1.672709,-14.528834,0.871969,3.172281,-9.383511
3.171152,6.547029,-2.405211,-11.507842,0.864188,3.271195,-9.158897
3.204505,6.953608,-2.814784,-9.674117,0.995874,3.244708,-9.227283
3.237199,5.31831,-2.345354,-8.223778,0.806127,3.18111,-9.125676
3.271183,2.77887,0.215635,-10.041042,0.801338,3.061695,-9.155006
3.304503,1.069947,1.112296,-10.866173,0.914019,3.156568,-9.218903
3.337827,0.531681,2.278464,-12.224632,1.052738,3.136067,-9.249281
3.371168,-0.635534,4.384688,-12.50207,0.948437,3.099554,-9.247485
3.404456,-0.56161,4.610649,-10.432358,0.910278,3.027726,-9.225039
3.437759,0.414212,3.430864,-7.4181,0.974325,3.067082,-9.197056
3.471014,2.496643,4.889134,-9.113106,0.891124,2.983431,-9.232671
3.504505,2.121638,6.069967,-10.093566,0.969237,2.878681,-9.240751
3.536889,1.624374,6.519494,-9.469406,0.933922,2.92103,-9.248084
3.571186,0.978964,8.53294,-7.575375,0.995724,2.906216,-9.434689
3.604519,1.47952,12.028001,-8.258495,0.946941,2.977296,-9.260654
3.637837,-1.741395,14.74013,1.095087,1.225725,2.979092,-9.697312
3.671197,-1.827589,16.420919,8.077277,0.719034,2.954251,-10.734487
3.704566,15.140275,22.666417,-13.281709,0.016311,2.135854,-11.488538
3.737838,-0.943798,4.389776,-7.135425,-1.962867,1.559429,-12.910296
3.77117,1.556586,2.703749,-9.372886,0.032024,4.138974,-16.734571
3.804513,1.415772,3.148188,-9.311682,-5.705586,1.858416,-12.231665
3.837836,1.378361,3.028923,-8.966905,-8.655498,2.396083,-17.641407
3.871116,1.180832,2.755825,-9.411643,-5.147717,-3.416947,-12.322797
3.904544,1.491042,2.910855,-9.501429,0.638975,-4.039162,-8.496727
3.937838,1.552845,2.827055,-9.641046,0.10071,-1.926204,-9.010301
3.971099,1.433729,2.821218,-9.362411,0.741481,-0.227757,-10.200561
4.004531,1.472786,2.793086,-9.342359,0.910877,3.343472,-12.789833
4.03785,1.496729,2.742506,-9.302703,3.044486,3.935161,-12.619839
4.071171,1.522168,2.932254,-9.33368,3.929324,4.762985,-12.84146
4.104519,1.545812,3.00932,-9.354181,-0.397901,6.20704,-12.018573
4.137869,1.506605,2.855786,-9.276815,-1.007696,20.049312,-4.215442
4.171175,1.646821,2.856085,-9.775575,17.093714,32.098562,5.83413
4.204504,1.675851,2.886912,-9.490356,-1.396169,39.5846,-31.937097
4.237823,1.658642,2.441874,-9.339067,2.852494,-7.716339,-18.084799
4.271165,1.836269,2.622642,-9.478085,4.295202,5.32684,-11.205862
4.304506,1.587861,3.019944,-10.882634,-0.231348,3.705159,-9.128669
4.33782,2.284599,2.448308,-11.058763,0.439052,3.210739,-9.264245
4.371174,3.44493,2.702851,-12.562974,0.38578,3.34018,-9.156802
4.40451,1.17754,1.82744,-13.941784,0.532879,3.274936,-9.275917
4.437839,3.982747,-1.165569,-9.773779,0.460451,3.198019,-9.250179
4.470247,4.689511,-0.651695,-9.056241,0.545598,3.148787,-9.282502
4.504456,5.619093,-0.357048,-9.073899,0.440549,3.216874,-9.226086
4.537838,4.131193,1.088054,-9.169671,0.379046,3.212235,-9.19511
4.571194,3.247402,2.00746,-9.252124,0.558019,3.339881,-9.351038
4.604502,1.503313,2.88751,-9.542132,0.422143,3.030569,-9.209775
4.637848,1.583971,3.881289,-10.474408,0.19259,3.412158,-9.088564
4.671179,1.992496,4.328572,-10.81724,0.361837,3.293192,-9.207082
4.704097,2.285946,3.947431,-10.161055,0.449378,3.307857,-9.230576
4.737851,2.69492,3.38657,-8.874425,0.390269,3.302769,-9.164284
4.771159,2.899781,2.522382,-8.67555,0.269208,3.317584,-9.12373
4.804502,2.851297,3.202209,-11.396208,0.370366,3.241865,-9.159645
4.837837,1.305186,2.859976,-9.449204,0.491278,3.268052,-9.290732
4.871127,0.116572,2.582388,-6.092713,0.231947,3.242912,-9.176405
4.904508,0.816901,3.76786,-5.733719,0.262025,3.253986,-9.31677
4.93795,3.915557,9.596901,-12.499825,0.542007,3.412907,-9.440225
4.97118,1.371328,10.315038,-7.432017,0.46509,3.515113,-9.333081
5.004489,-4.009533,15.64951,1.759202,0.54051,3.430265,-9.493049
5.03777,1.922164,22.617933,6.296077,0.945444,3.689148,-9.934795
5.071171,-2.22564,29.582615,-26.293313,0.309911,3.132775,-10.261615
5.104524,-1.152101,1.347684,-8.976183,-2.679956,-2.189127,-12.890842
5.137855,1.048398,3.150583,-9.361214,-0.638826,4.119072,-13.898388
5.17119,1.347684,3.303518,-9.990911,-1.191008,1.258348,-14.032169
5.204553,1.090448,2.674119,-9.177003,-7.331906,4.823291,-21.208596
5.237893,1.240091,3.05092,-9.469406,-12.176147,-0.051477,-18.978467
5.271196,1.18203,2.965025,-9.315872,-0.863889,-9.084973,-11.434517
5.30446,1.181132,2.983431,-9.207531,-0.330112,-4.493778,-10.416047
5.337771,1.307131,2.91714,-9.653466,-1.576488,-0.925691,-10.288252
5.370247,1.260143,2.761661,-9.382762,-0.227158,1.126512,-10.792549
5.403967,1.350079,2.850548,-9.29148,1.285732,4.759394,-13.151071
5.43791,1.360703,2.938987,-9.369893,-1.574693,8.706376,-16.076441
5.471242,1.31611,3.110927,-9.481078,-0.233742,13.293681,-17.144293
5.504513,1.251314,2.855038,-9.318865,24.918843,41.579041,1.48371
5.538078,1.453781,2.928064,-9.554403,8.156738,42.080644,20.270185
5.57107,1.379558,2.87105,-9.528664,-10.306359,15.255799,-18.790366
5.604503,1.575591,2.508914,-9.50113,3.452712,5.697655,-10.519001
5.637917,1.900166,2.55665,-9.646433,3.19353,5.127516,-11.496469
5.671189,0.267262,3.085189,-10.288252,0.388922,3.211637,-9.502327
5.704503,1.491791,2.739064,-10.349755,0.347022,3.670592,-9.254518
5.737839,2.817178,4.27051,-10.513165,-0.070781,3.467377,-9.149319
5.771187,1.547458,1.289623,-11.47522,0.086793,3.472465,-9.222644
5.804538,1.81906,2.377377,-15.330621,0.334003,3.293342,-9.182091
5.837863,6.498993,-1.109453,-12.10776,0.213092,3.448372,-9.201994
5.871175,6.201653,-1.666873,-9.156951,0.199923,3.463636,-9.164583
5.90454,6.463079,-0.97238,-9.213516,0.263671,3.206699,-9.193314
5.937858,4.749218,0.514772,-10.000788,0.283274,3.485334,-9.236711
5.97117,2.134357,1.70159,-9.708086,0.293599,3.424728,-9.223542
6.004556,1.038971,3.275385,-11.464146,0.461798,3.274038,-9.234915
6.037852,0.69554,3.828914,-10.930968,0.48215,3.410063,-9.202443
6.071212,1.024007,4.597031,-10.967631,0.290457,3.247252,-9.180595
6.104482,2.206336,4.1071,-8.511242,0.309761,3.329406,-9.1366
6.137815,2.586878,3.701269,-8.229764,0.519111,3.298879,-9.269333
6.171169,2.951557,5.728182,-11.442448,0.36887,3.143699,-9.275319
6.204518,1.414425,5.183781,-8.249816,0.432169,3.291696,-9.216509
6.237851,0.119415,4.902453,-6.343963,0.379046,3.313693,-9.384708
6.271182,1.854675,5.718755,-6.830003,0.247061,3.477253,-9.472399
6.304509,3.858244,9.86985,-11.5044,0.485891,3.682414,-9.449653
6.336967,3.180062,7.1878,-6.545083,0.684916,3.824874,-9.207531
6.371195,-0.20935,10.998457,-0.718436,-0.027235,3.426225,-9.654364
6.404502,-5.696458,14.831412,11.889581,0.068237,1.724036,-10.384772
6.437854,5.500127,34.956892,-20.103482,-1.196545,2.82062,-11.445441
6.471132,0.739386,4.595236,-11.482103,2.933301,7.098762,-15.98875
6.504503,0.650199,2.696117,-9.654963,0.711702,0.984351,-13.343961
6.537852,1.586066,3.297382,-9.879427,-2.697913,10.220464,-14.101753
6.571186,1.374321,3.107785,-9.553505,-12.909996,6.053955,-20.907065
6.604517,1.267775,2.77049,-9.291779,0.193039,-7.427677,-10.333294
6.637812,1.221835,2.821667,-9.272326,2.574607,-4.180575,-9.947515
6.671172,1.329727,2.913099,-9.142436,-0.541558,-0.606054,-10.700967
6.704521,1.37043,2.931505,-9.399822,-1.953289,2.197207,-10.587687
6.73782,1.312219,2.751335,-9.329789,2.11236,3.807814,-11.845586
6.771177,1.429838,2.94647,-9.402216,0.27654,6.122492,-13.457091
6.804514,1.375967,2.912351,-9.361812,-1.629312,13.791094,-22.586508
6.837841,1.371627,2.906964,-9.54737,5.268779,41.039279,17.345114
6.871169,1.60956,2.714972,-9.601091,17.472011,38.020681,9.746694
6.904515,1.442408,2.809846,-9.470004,-0.877057,28.374398,-21.635677
6.937844,1.456026,2.491854,-9.335026,4.996279,-7.388471,-10.38537
6.971218,1.766834,2.437983,-9.465515,1.17769,4.673649,-7.955169
7.00449,0.951131,1.759053,-9.596004,-0.011672,3.321924,-9.213816
7.037837,1.419363,3.179913,-9.726792,0.542605,3.458548,-9.303003
7.071184,1.199388,2.379323,-10.604896,0.679978,3.054961,-9.443368
7.104505,3.250245,3.803774,-11.532832,0.547693,3.266855,-9.216958
7.137791,0.05043,0.851319,-11.700732,0.679229,3.225554,-9.311233
7.171168,3.705608,2.015092,-15.870233,0.680277,3.154623,-9.274122
7.20452,6.484179,-1.634101,-9.352086,0.69973,3.251442,-9.1782
7.23782,6.312388,-1.190709,-8.01757,0.640621,3.119906,-9.298513
7.271141,5.3855,0.832314,-9.246288,0.677134,3.191435,-9.232222
7.304508,3.179015,1.882508,-10.15911,0.646158,3.163452,-9.267687
7.337854,1.162726,2.245991,-9.547519,0.69135,3.218371,-9.197205
7.371168,0.732951,3.94818,-11.771064,0.525097,3.312945,-9.197654
7.403791,-0.140365,4.09064,-10.57392,0.720082,3.295138,-9.236412
7.437845,1.158985,3.355444,-9.832888,0.507589,3.20625,-9.193913
7.471171,2.092308,3.425926,-8.95613,0.622664,3.246055,-9.256164
7.504519,2.265295,3.65473,-8.344689,0.575078,3.252639,-9.282502
7.537801,1.016674,3.314442,-7.235536,0.649899,3.272691,-9.282053
7.571169,1.684231,5.028602,-10.140405,0.707362,3.289451,-9.317668
7.604522,3.076809,5.980331,-8.983216,0.541259,3.337487,-9.399073
7.637666,2.174911,7.69913,-10.386717,0.827675,3.358736,-9.61007
7.671174,0.650648,6.595363,-6.226643,0.760785,3.601307,-9.418228
7.704523,-1.35786,9.231324,-5.420816,0.989589,3.573174,-9.541085
7.737414,0.966843,15.19265,6.941038,-0.496964,1.656996,-9.839024
7.77117,12.479773,24.427715,-39.912318,-0.074672,2.259908,-10.678221
7.804437,1.313267,-10.211036,-9.197654,-1.306981,2.413292,-12.040122
7.837837,0.702873,4.787676,-9.22863,1.235452,1.674355,-13.392146
7.871187,1.78554,3.369361,-9.878081,-2.599597,0.314849,-13.141195
7.904426,1.24892,2.749091,-9.177303,-6.327502,0.854162,-16.692671
7.937833,1.308328,3.045683,-9.179996,-12.78699,1.042413,-20.214817
7.971191,1.426845,3.009918,-9.405209,-0.910278,-2.157103,-12.698401
8.004429,1.465603,2.927615,-9.348494,-1.351874,-1.583821,-9.084524
8.036965,1.397067,2.964427,-9.397727,-0.434713,0.675638,-8.886696
8.071191,1.413228,2.970861,-9.625334,-0.023644,1.797361,-8.21435
8.104524,1.355167,2.998695,-9.386204,1.839411,4.813565,-13.206289
8.137852,1.363995,2.959339,-9.219502,-1.246376,4.913825,-13.18938
8.171184,1.434178,2.922676,-9.325748,-1.721343,15.04585,-23.96861
8.204427,1.454081,2.84157,-9.486615,9.032748,20.98054,-4.55139
8.237297,1.536683,2.763157,-9.34191,4.272007,31.706048,5.083521
8.271168,1.459019,3.211787,-9.602588,16.925216,41.966915,33.52017
8.304382,1.615246,2.846658,-9.485567,-30.075838,2.165932,-24.587084
8.337799,2.347,2.199751,-10.682262,5.816023,3.461541,-10.395097
8.371175,-0.781136,-0.586451,-9.505769,0.233443,5.37278,-10.268499
8.403493,8.688868,-4.008486,-16.208127,-0.686263,3.815147,-9.914893
8.437842,5.476333,-4.694299,-12.344645,-1.239941,1.617042,-8.629759
8.471189,-2.269036,-1.312668,-5.875132,-2.970861,1.021463,-6.314184
8.504518,-2.478237,0.526294,-12.38475,1.155393,1.989503,-9.759264
8.537852,0.541857,0.272051,-10.290646,0.124054,3.326712,-10.063787
8.571172,2.834088,-0.98061,-8.184272,-0.639275,2.406408,-8.988453
8.604476,2.830646,-0.483047,-7.723222,1.40395,2.760912,-9.539738
8.63785,3.115117,3.044935,-13.538946,-0.816153,3.353498,-9.38366
8.671173,-0.684018,2.576253,-7.585251,-1.969301,2.550215,-8.338404
8.704523,0.344328,4.498417,-11.665865,0.95996,4.080913,-10.772048
8.737122,1.612103,7.030525,-15.082662,0.556372,3.743917,-9.45489
8.771212,3.249347,5.281049,-9.492151,-0.304224,3.127987,-8.933235
8.80453,3.426225,3.11796,-5.949953,-0.152337,3.073516,-9.075845
8.837853,1.899119,1.651759,-5.659347,0.325174,3.464833,-9.397577
8.871143,3.514963,5.012291,-12.48097,0.134679,3.076659,-9.233568
8.904514,1.849138,3.967184,-8.101669,-0.048484,2.859826,-9.175507
8.937837,0.458506,3.523044,-6.184743,0.144106,3.619564,-9.24958
8.971185,2.068365,5.362754,-9.399822,-0.053423,3.322971,-9.124479
9.004504,3.619414,7.699429,-11.427933,0.288512,3.496258,-9.265442
9.037356,0.354055,7.380989,-6.133266,0.173436,3.594274,-9.426757
9.07117,-2.04532,8.116035,0.296592,0.171491,3.366817,-9.439178
9.104535,1.050793,15.750968,-5.50716,0.336547,3.731646,-9.565028
9.13785,13.772538,3.230043,-29.573487,-0.072427,3.513467,-9.800117
9.171169,-3.445978,-1.053187,-7.670548,-1.454829,2.17925,-11.439156
9.204507,1.629761,5.096689,-11.208556,-1.441062,3.42413,-12.478875
9.237862,1.277502,3.54579,-9.515196,0.202617,5.312774,-15.389281
9.271181,1.55509,3.251741,-9.373634,-1.116187,0.736842,-14.284766
9.304532,1.511992,3.150583,-9.448755,-4.971737,-0.908482,-18.173088
9.337834,1.309076,2.789045,-9.28325,-9.559191,-3.353798,-18.158423
9.371171,1.330475,2.819423,-9.346399,-0.177177,-4.980417,-12.682988
9.404455,1.42071,2.939885,-9.369594,-1.333768,-3.673136,-9.700305
9.437841,1.489097,3.056457,-9.400121,-0.764975,0.802086,-10.955959
9.471182,1.47937,3.012761,-9.311532,-0.101458,3.109281,-11.304926
9.504519,1.412629,2.877634,-9.276815,-0.900102,4.767624,-11.626958
9.537857,1.434777,2.864016,-9.289385,-2.097545,8.608809,-16.300008
9.571189,1.491192,2.971161,-9.34191,-2.107122,15.660134,-14.862388
9.604517,1.400508,2.949612,-9.325449,20.594162,36.158973,6.754284
9.637833,1.455876,3.090276,-9.376627,2.648082,43.056316,-8.104512
9.67114,1.493437,2.870301,-9.443517,-1.046303,-9.649276,-5.396574
9.704518,1.701291,2.800418,-9.518937,0.765424,2.850249,-8.487748
9.737834,1.530398,2.997049,-9.832589,1.518876,10.474108,-10.234231
9.771181,0.943948,2.95066,-9.090061,0.712001,4.107998,-9.506517
9.804499,0.839048,3.244708,-9.328741,0.719483,3.213882,-9.631768
9.837865,2.624737,5.013039,-9.892446,0.474518,3.175723,-9.283699
9.871186,1.304138,5.773973,-8.605667,0.466437,3.309952,-9.119092
9.904489,2.486168,4.519965,-9.190471,0.573432,3.343472,-9.16144
9.937807,3.584996,2.285347,-14.374851,0.728612,3.309204,-9.229977
9.971191,6.575461,0.562358,-11.377054,0.357497,3.255183,-9.186132
10.004505,5.93035,-1.073838,-6.557803,0.544102,3.357988,-9.19107
10.037854,6.114411,-0.272649,-8.424449,0.650648,3.223758,-9.202892
10.071115,4.514279,1.549253,-10.253684,0.629698,3.35305,-9.026163
10.104505,1.065607,2.949014,-10.28047,0.443841,3.083842,-9.405358
10.13787,-0.193189,3.471417,-9.997496,0.67489,3.115566,-9.364656
10.171185,0.978665,3.622856,-10.27643,0.628201,3.105091,-9.316321
10.204589,2.004916,3.681067,-10.289599,0.564154,3.137564,-9.252723
10.237839,2.893945,4.203919,-10.993369,0.623413,3.175124,-9.238656
10.271168,1.129056,5.074692,-10.070372,0.68327,3.039847,-9.324402
10.30452,0.794604,4.904847,-8.684229,0.594382,3.094018,-9.268585
10.337836,0.207854,3.304565,-5.425754,0.651695,3.083543,-9.242248
10.371204,1.506007,6.179954,-9.948413,0.903843,3.073816,-9.439776
10.404432,5.232266,7.952774,-9.97894,0.767968,3.120355,-9.467909
10.437834,4.480609,9.521032,-10.927078,0.435611,3.328358,-9.465066
10.471178,1.123669,8.292165,-2.25078,0.69988,3.477253,-9.50098
10.504428,-1.241588,13.671679,0.778443,0.560862,3.524091,-9.792934
10.537837,-2.711979,20.684097,9.651521,0.72936,3.483389,-9.763753
10.571156,-3.043588,1.777459,-2.498588,-1.517978,0.973128,-10.940097
10.604502,1.079824,3.628542,-8.878915,-1.610008,1.970947,-12.182582
10.637838,1.119778,3.278378,-9.585828,2.641497,7.951877,-15.214947
10.671162,1.525311,3.204903,-9.585828,-0.91372,0.126149,-13.62933
10.704503,1.285583,2.984928,-9.254967,-0.028731,7.934518,-13.104831
10.73788,1.32853,2.883171,-9.257661,-10.142799,10.804819,-25.574877
10.771146,1.457672,2.957094,-9.58074,-4.450681,-5.055687,-10.705905
10.804503,1.449591,2.902475,-9.493648,-2.080785,-1.56766,-9.980586
10.83775,1.473235,2.932553,-9.322756,-3.947132,-0.357946,-8.277649
10.870784,1.453931,3.035208,-9.388748,-1.830433,3.845524,-11.396807
10.904305,1.552097,2.981187,-9.365553,-0.407178,5.105817,-11.865339
10.937851,1.561225,2.946919,-9.686538,-1.011586,4.627708,-12.555492
10.971139,1.410085,2.926118,-9.368397,-7.949033,13.721809,-23.585823
11.003995,1.43762,2.971011,-9.412841,23.472843,47.814064,-5.516438
11.037787,1.803347,3.404826,-9.54722,21.202759,57.680472,1.406793
11.071139,1.751122,2.934947,-9.577897,-1.034781,-4.191649,-5.676406
11.104468,1.248321,2.523878,-9.511755,1.575591,5.759009,-9.118942
11.137871,0.621018,2.472401,-9.577448,0.09637,3.54564,-9.241799
11.171186,0.45267,0.803134,-9.252124,0.021549,3.391807,-9.210972
11.203765,2.713476,4.175936,-10.693485,0.710954,3.202359,-9.48018
11.237851,1.301744,3.372054,-11.113682,0.533776,3.426674,-9.29148
11.271175,0.914169,2.281905,-15.949544,0.489632,3.333596,-9.343556
11.304521,5.017977,-0.314699,-12.344795,0.577322,3.460194,-9.405807
11.337835,5.61176,-1.886249,-6.563789,0.06719,3.315339,-9.259008
11.370806,7.172087,-1.017273,-8.788381,-0.289709,3.504787,-8.930691
11.404004,5.343301,1.116336,-10.363522,-0.330112,3.6254,-8.917522
11.437853,1.194001,2.798173,-8.726428,-0.220274,3.570331,-8.902558
11.471186,0.246312,3.467526,-10.002135,0.035016,3.620013,-9.162488
11.504502,1.715656,4.608703,-12.642734,0.029629,3.523642,-9.217856
11.537856,1.463209,3.65024,-9.256913,0.068686,3.616271,-9.156951
11.571186,2.743554,3.547885,-9.685789,-0.116123,3.691991,-9.056241
11.604503,3.580806,2.528816,-9.06103,-0.056266,3.571678,-9.131063
11.637797,2.468959,2.514002,-8.151051,-0.05881,3.600409,-9.127023
11.671167,1.196395,3.208943,-8.950145,-0.182714,3.559407,-9.120438
11.704502,2.575654,5.462566,-13.152268,0.117619,3.757385,-9.185234
11.737856,2.97999,3.789109,-6.365512,0.091731,3.746012,-9.138844
11.771169,-0.196631,5.549658,-3.577514,-0.080209,3.726708,-9.031401
11.804501,0.88858,9.058336,-6.276324,-0.08365,3.833104,-9.120438
11.837858,1.55913,15.116033,-8.066802,-0.214738,3.856299,-9.371988
11.87117,0.718436,16.880473,2.176108,0.5658,2.841271,-9.583883
11.90397,-7.302725,25.871021,-34.464866,-0.213391,2.926866,-10.03745
11.937834,1.250267,0.48215,-8.090745,-2.047564,1.083415,-11.704772
11.971183,1.247723,6.106929,-10.997709,-0.180769,4.415365,-14.300628
12.004518,1.331673,2.844413,-9.071505,1.965859,1.847492,-14.402236
12.037836,1.513339,2.799371,-9.731281,-3.149086,10.333444,-15.543712
12.071226,1.261191,2.880926,-9.303901,-9.065519,2.357325,-21.049974
12.104522,1.178887,2.929111,-9.326497,-3.463785,-6.803666,-12.719052
12.137833,1.254158,2.904719,-9.35882,-1.216148,-3.481294,-10.80452
12.171081,1.293813,2.822116,-9.319613,-1.779704,-0.137672,-9.786499
12.204527,1.179486,2.942579,-9.057139,-0.512826,2.939586,-10.676126
12.237826,1.200436,2.835135,-9.418377,1.540275,4.452027,-11.087345
12.271188,1.270319,2.932254,-9.31243,0.265317,6.725702,-13.983684
12.304508,1.318205,2.934947,-9.448755,-0.62042,10.033859,-18.956768
12.337848,1.301894,2.874641,-9.391591,-0.913271,15.843597,-11.335453
12.37118,1.31192,2.741159,-9.609621,8.279146,36.524701,7.377846
12.40449,1.397964,2.996899,-9.692224,13.492407,44.221735,4.967847
12.437836,1.502116,2.785903,-9.487363,-12.514191,10.235278,-4.455319
12.471169,1.895826,2.614562,-10.563445,5.661891,7.083349,-13.291436
12.504519,-0.667408,0.365428,-8.203875,-1.308628,3.51197,-9.342808
12.536938,4.179528,4.436165,-11.995828,-0.307816,3.018149,-9.268884
12.57117,4.349672,5.332377,-11.496469,0.521655,2.817627,-9.43394
12.60454,2.017935,1.94057,-14.170588,-0.013468,2.972956,-9.253321
12.63692,5.240646,0.005836,-11.682475,0.351811,3.150882,-9.418078
12.671042,3.387467,-1.21974,-7.027831,0.077964,2.774829,-9.271278
12.704421,3.626298,-0.257386,-8.735407,-0.005537,3.183803,-9.278611
12.73784,2.583885,0.379495,-9.051752,-0.049681,3.174974,-9.278461
12.771191,1.76848,0.751208,-9.55575,0.294647,3.057804,-9.290283
12.804501,0.491577,2.442771,-11.726321,-0.23449,3.187245,-9.173412
12.837857,0.010625,3.986338,-11.981911,0.132733,2.935546,-9.208728
12.871209,0.60336,4.272605,-10.756485,-0.005387,3.286458,-9.280107
12.904504,2.437384,3.501944,-10.088778,0.055069,3.27733,-9.280407
12.937818,2.341613,3.850762,-10.644103,0.138869,3.261318,-9.317817
12.971185,2.299713,4.287869,-11.115029,0.039955,3.021141,-9.196008
13.004503,0.425734,3.163153,-8.26074,0.068536,3.124245,-9.1574
13.037858,1.13579,2.572362,-7.575076,0.172987,3.163452,-9.257362
13.071137,2.549766,5.795073,-11.904994,0.027085,3.041343,-9.226086
13.104501,1.755162,4.767325,-8.166764,0.336098,3.269848,-9.432145
13.137887,0.198277,5.539782,-7.780086,0.21384,3.078754,-9.367948
13.170844,0.889478,6.16065,-6.532663,0.539612,3.267903,-9.562633
13.204503,1.645623,8.987705,-7.838896,0.442195,3.481593,-9.765699
13.237878,1.883406,9.843812,-5.893538,-0.003741,3.579609,-9.461624
13.270234,-0.326222,11.116376,-0.096669,-0.671298,3.634229,-9.847404
13.304506,8.066802,-1.388836,-15.635443,-0.686861,3.117661,-10.038049
13.337776,-8.226322,13.314332,-9.399073,-1.122621,2.226837,-10.860786
13.371173,1.178737,3.955063,-11.174886,0.384732,4.287869,-13.849904
13.404519,0.999316,3.050471,-8.852577,-0.38967,1.050045,-15.4231
13.437791,1.678545,3.206399,-9.774378,-4.450531,6.582793,-14.066736
13.471183,1.406943,2.897985,-9.593909,-14.989734,2.370344,-18.056517
13.504516,1.358309,2.966671,-9.504422,-4.122663,-5.018576,-9.932251
13.537884,1.368036,2.975051,-9.414337,0.316495,-3.842981,-8.4659
13.571186,1.417418,2.725148,-9.232521,0.148147,-0.955321,-8.891934
13.604519,1.382252,2.906216,-9.35029,0.03367,0.68327,-9.728737
13.63779,1.488798,2.896788,-9.382164,1.286331,2.256466,-11.687862
13.671203,1.307879,2.896938,-9.278162,-0.055966,6.048269,-14.503843
13.704519,1.449891,2.829598,-9.344155,-10.266254,13.320317,-21.397744
13.737804,1.348582,2.919983,-9.355976,-0.826777,24.430259,5.973746
13.771142,1.466351,2.738466,-9.37947,5.113,50.642166,10.621357
13.804522,1.343045,3.014557,-9.407453,2.301359,1.621381,-4.707169
13.83825,1.521121,2.952904,-9.593909,1.72239,-1.255953,-8.482361
13.87117,1.625871,2.59436,-9.56802,1.975586,6.077449,-8.827288
13.904505,1.703236,3.033861,-10.114067,-0.253495,4.225318,-9.28744
13.937785,0.097118,2.156355,-9.434539,0.346274,3.433557,-9.274571
13.971149,1.688721,4.321539,-10.514213,0.522852,3.43655,-9.226685
14.004517,3.060498,4.635639,-9.94108,0.889478,3.44912,-9.347746
14.037829,-0.546795,0.995724,-12.173603,0.750759,3.142053,-9.544078
14.071168,4.359698,3.289601,-18.191943,0.495917,3.479797,-8.941016
14.104517,5.915236,-1.97409,-8.143569,-0.405233,3.443434,-8.848537
14.137847,6.553613,-1.446898,-8.324338,0.091432,3.624502,-9.015389
14.171173,5.901768,-0.087691,-9.527766,0.428877,3.54983,-9.213367
14.204635,4.030782,1.992346,-11.590146,0.273847,3.590084,-9.212469
14.237857,0.605755,2.542883,-9.317368,0.349716,3.674333,-9.0736
14.271205,1.091945,4.212748,-11.397555,0.286566,3.753793,-9.0736
14.304481,0.812711,4.859505,-10.97227,0.070033,3.652036,-9.010451
14.337814,1.982619,4.587305,-10.5196,0.302877,3.711444,-9.05684
14.371171,1.606567,3.463336,-8.443603,0.273098,3.72985,-9.034394
14.404052,2.308841,2.720658,-8.137883,0.103104,3.756637,-8.998928
14.437843,2.072106,2.173713,-7.288659,0.329364,3.671789,-9.020926
14.471173,3.131129,5.041172,-11.952281,0.031874,3.764418,-9.087517
14.504503,3.818738,6.017442,-10.110177,0.399846,3.672836,-9.344753
14.537765,0.67459,6.544934,-4.269164,0.560562,3.944438,-9.302404
14.570585,1.583821,6.873549,-5.277009,0.432318,3.90194,-9.176704
14.603711,3.14744,12.487554,-11.618877,0.02514,3.641411,-9.259157
14.636936,-2.106823,10.814995,2.71168,-0.348069,2.627132,-9.404012
14.671182,3.109132,13.073556,2.176407,0.284771,4.83661,-10.161654
14.70401,-1.988455,11.551987,0.814058,-0.923596,3.949526,-11.587452
14.737907,1.081769,4.5264,-11.318095,0.459404,4.345033,-15.286476
14.771182,1.310124,1.975287,-8.346186,-1.388088,1.707725,-12.853132
14.804517,1.984265,3.44927,-10.228694,-5.241394,5.380263,-17.498049
14.837684,1.396019,3.028324,-9.600044,-10.404674,4.025844,-18.176231
14.871186,1.254307,3.025032,-9.074648,-0.824682,-2.569519,-10.927826
14.904506,1.422506,3.094915,-9.742953,0.059259,-0.590042,-10.708449
14.937834,1.203279,2.905617,-9.217856,-0.422741,-0.172538,-8.899865
14.971117,1.289922,2.777373,-9.335775,0.403138,3.404377,-10.439391
15.004522,1.42475,3.00917,-9.405807,1.627816,5.140834,-11.574134
15.037838,1.337209,2.903672,-9.337421,-0.340288,4.929837,-11.478213
15.071187,1.387639,2.808499,-9.233868,-2.939436,8.799305,-16.049805
15.104549,1.392278,2.911004,-9.270081,-2.570866,12.445954,-13.769246
15.137869,1.28648,2.929261,-9.372587,19.225078,40.905498,9.196756
15.171186,1.447496,2.782611,-9.420622,6.224847,47.885294,20.016689
15.204443,1.499871,2.710632,-9.49275,2.971759,0.748664,-1.791675
15.237851,1.696801,2.651523,-9.811789,5.58243,8.317903,-12.652162
15.271185,1.446149,2.696117,-10.39794,-0.870922,3.790007,-9.246737
15.304438,0.16745,0.427979,-9.506517,0.556821,3.857496,-9.427206
15.337519,2.481828,4.285026,-11.050533,0.200073,3.034609,-9.205884
15.371195,3.836097,4.648808,-10.592626,0.45686,3.212086,-9.195709
15.404509,1.372525,2.865962,-12.281197,0.881098,3.459745,-9.435736
15.437834,7.700925,2.592863,-17.754088,0.534225,2.999144,-9.215013
15.471134,6.373592,-2.189127,-8.242633,0.636731,3.417396,-9.209775
15.504518,4.640278,-1.098679,-7.94619,0.514921,3.217323,-9.207531
15.537835,5.162682,0.857155,-11.355056,0.55338,3.119008,-9.250478
15.571184,1.812026,1.536534,-9.068961,0.414361,3.363824,-9.20349
15.604517,1.175445,3.146542,-9.785901,0.539313,3.230492,-9.239255
15.637854,1.76863,4.815809,-11.098269,0.566399,3.355743,-9.275917
15.671168,1.72688,4.869681,-10.687948,0.455064,3.358886,-9.226834
15.704517,1.24877,4.25824,-9.507265,0.283723,3.270297,-9.101134
15.737853,2.258262,4.22861,-9.02736,0.375753,3.301273,-9.21621
15.771171,2.788147,4.435118,-9.40895,0.280132,3.187395,-9.167127
15.804504,1.922762,4.265273,-8.845245,0.246462,3.247551,-9.197056
15.837744,2.987621,5.224783,-9.24539,0.445337,3.391208,-9.263347
15.871173,-0.892919,6.604791,-9.248982,0.567147,3.390011,-9.287589
15.904442,-1.621381,7.441444,-7.476611,0.578669,3.307857,-9.335326
15.937834,-0.76258,8.636044,-7.941551,0.759438,3.57093,-9.395632
15.971171,-0.736243,8.35681,-5.470946,0.844585,3.654879,-9.462073
16.004449,0.443392,9.274421,-5.446854,0.606653,3.647996,-9.389347
16.037833,2.94213,11.314802,-6.457991,0.786374,3.698874,-9.763005
16.071169,3.032963,12.449246,-18.353109,-0.248856,2.317221,-10.185597
16.104437,-0.595579,4.989395,-10.539502,-1.03523,2.959189,-11.748168
16.137834,1.517529,2.682649,-8.812024,0.204861,5.076787,-14.016756
16.17117,1.782996,2.957094,-9.700604,-0.863889,0.325324,-14.549634
16.204471,1.593248,2.979092,-9.533752,-3.555816,9.056541,-16.83947
16.237785,1.431185,2.868955,-9.308091,-8.876221,4.753259,-24.13636
16.271126,1.456924,2.878831,-9.42571,-2.640899,-7.391314,-10.053013
16.304463,1.473085,2.918337,-9.294323,-2.209478,-1.201633,-10.614474
16.337866,1.514536,2.949014,-9.351936,-3.716383,-0.088589,-9.208728
16.371187,1.467848,2.893646,-9.291031,-0.898157,2.507118,-10.816791
16.404229,1.45004,2.915643,-9.318416,0.447432,4.060711,-12.959079
16.437922,1.518577,2.88362,-9.272924,-0.855808,4.871177,-14.890072
16.471189,1.528453,2.900978,-9.346399,-4.571143,12.441015,-10.344218
16.504739,1.507204,2.85848,-9.357622,26.092193,45.432048,-5.43578
16.537786,1.574094,2.947816,-9.499334,7.420195,40.237642,8.033881
16.57117,1.520223,2.822416,-9.522828,-0.970135,-3.320128,-4.045597
16.604462,1.558531,2.247936,-10.151329,1.032087,3.493864,-7.430221
16.637851,0.77126,0.283124,-9.843962,0.308115,6.23203,-11.301933
16.671173,1.833874,3.783872,-10.09207,0.342832,2.364807,-9.843363
16.704511,2.953652,5.552202,-10.520647,0.773205,3.239171,-9.441572
16.737837,2.965025,3.745862,-9.980586,0.64122,3.477403,-9.271278
16.771184,0.913869,4.311064,-13.651926,0.449827,3.18934,-9.258409
16.804531,2.902175,3.146542,-16.807297,0.327119,3.272841,-9.082728
16.837835,5.886205,-1.448095,-8.842102,0.249754,3.203706,-9.229827
16.871169,6.438837,-0.692398,-7.993178,0.347321,3.357688,-9.130165
16.904522,5.101029,1.308478,-9.856382,0.287614,3.295138,-9.113255
16.937836,2.726644,2.208131,-9.321259,0.375604,3.375646,-9.164284
16.971205,0.483796,2.931505,-8.821901,0.51118,3.331351,-9.298663
17.004427,1.516482,4.704325,-11.721981,0.543503,3.162704,-9.370941
17.037835,1.043161,5.339111,-10.725808,0.364979,3.305313,-9.309587
17.071138,2.379921,4.578176,-8.986358,0.29764,3.341377,-9.195559
17.10447,3.005878,4.162319,-8.722837,0.375604,3.458847,-9.121486
17.137836,3.494163,4.520564,-9.222794,0.338792,3.395847,-9.193464
17.171157,3.272242,4.353413,-7.508335,0.458506,3.479199,-9.285046
17.204504,2.660203,4.641026,-7.662317,0.451473,3.482042,-9.184635
17.237236,2.371392,7.40149,-12.626722,0.348069,3.490422,-9.334278
17.270394,1.985313,13.631425,-6.250137,0.278336,3.629739,-9.180744
17.303479,-0.664864,13.012352,0.287015,0.298388,3.653233,-9.37124
17.337839,-0.947389,13.960939,-5.191712,0.149194,3.740325,-9.767644
17.371173,-0.778443,24.528424,-12.80794,0.083052,1.882209,-10.039396
17.403987,2.004018,-5.811234,-6.249688,-0.261576,2.584034,-10.329104
17.437734,1.933985,3.600709,-10.949973,-1.217944,3.749753,-12.249173
17.471171,0.97253,2.989118,-9.610519,1.482962,3.091923,-15.063508
17.504341,1.34125,2.954101,-9.302255,-0.596926,1.508999,-13.402471
17.537882,1.489247,2.895591,-9.297466,-4.372567,6.095855,-28.857894
17.57119,1.452734,2.768993,-9.864613,-6.317177,-8.021461,-13.555556
17.604483,1.450339,2.768095,-9.532854,-0.604109,-6.547777,-13.349498
17.637202,1.37896,2.754627,-9.362561,-6.194919,-1.410534,-12.306935
17.671188,1.39961,2.68654,-9.324551,-1.402603,1.665227,-12.622083
17.704508,1.426397,2.681302,-9.236861,1.53803,4.881652,-13.109321
17.737851,1.453332,2.918037,-9.402665,-0.473021,6.318973,-12.10387
17.771173,1.451088,2.886463,-9.370192,-2.736072,11.40818,-19.494735
17.804503,1.43762,2.77438,-9.346998,6.606886,59.054494,24.682257
17.837879,1.501966,2.656611,-9.495743,7.555323,44.941518,23.147968
17.871179,1.152101,2.809546,-9.256913,0.831416,-0.144106,-1.415024
17.904524,1.349929,2.645238,-9.432893,3.567189,-3.895356,-13.505276
17.937834,2.034695,2.796976,-9.696264,0.511929,3.541749,-8.434325
17.971189,0.3352,2.852793,-9.336822,-0.255291,4.730962,-9.11954
18.004516,2.619051,4.361493,-11.137925,0.336397,3.479647,-9.381266
18.037865,2.336375,4.166957,-9.565028,0.587049,3.426823,-9.160543
18.071179,-0.652892,3.65024,-9.516244,0.499807,3.398691,-9.139293
18.104501,1.39557,0.631044,-16.808794,0.681025,3.177369,-9.420472
18.137813,8.773267,-1.068301,-12.013036,0.806426,3.335841,-9.154258
18.171085,6.460834,-2.19212,-6.2657,0.666061,3.343921,-9.123282
18.204504,4.019559,-0.029929,-8.096881,0.619971,3.13502,-9.268286
18.236922,3.639616,2.33024,-10.746309,0.660374,3.220616,-9.301207
18.271173,-0.520907,2.772585,-8.496278,0.644213,3.282867,-9.198103
18.304556,-0.914169,4.168005,-11.046193,0.475416,3.213732,-9.062826
18.337835,-0.084399,4.741586,-10.685554,0.713348,3.352601,-9.08183
18.37119,0.340737,3.832954,-9.089462,0.641968,3.150134,-9.221148
18.40451,1.695604,4.685171,-9.966819,0.755996,3.121253,-9.277114
18.437747,2.386057,4.620226,-9.562933,0.80059,3.180511,-9.249131
18.471074,2.214566,4.616784,-9.379171,0.760485,3.09312,-9.306893
18.504389,2.041878,4.163965,-7.865084,0.842191,3.252789,-9.351038
18.537747,0.966993,5.001067,-6.70969,0.832164,3.180212,-9.327544
18.57109,1.394074,8.052287,-10.413952,1.029693,3.262964,-9.414786
18.604412,0.786374,8.90166,-4.934775,0.660674,3.196074,-9.810143
18.637748,3.185749,9.73592,-3.730748,1.296506,3.631236,-9.422567
18.671004,3.061695,13.470559,-4.544357,1.822053,3.945486,-9.640148
18.704415,8.094037,10.771599,-20.256118,-1.422057,1.293065,-10.163749
18.737756,0.892022,-2.926268,1.491342,-1.893731,1.926803,-12.173603
18.771045,1.10242,5.845054,-11.908436,-0.131686,3.004381,-14.214883
18.804416,1.506007,3.630637,-8.831029,2.168626,0.893817,-14.743122
18.837753,1.436273,2.837978,-9.77333,-1.112595,3.034909,-13.568874
18.870986,1.473983,3.026678,-9.432145,-10.935907,15.984261,-27.66943
18.904417,1.410534,2.784556,-9.192866,-14.776642,-5.482618,-13.204194
18.937755,1.475479,2.874342,-9.281155,-0.461349,-2.979241,-9.323354
18.971021,1.565265,2.920581,-9.291929,-0.884091,-0.476313,-8.287077
19.004408,1.658193,3.081896,-9.464318,-1.5298,3.860339,-9.52612
19.037747,1.654303,3.031766,-9.402366,0.98076,5.409593,-10.603998
19.071019,1.549852,3.132775,-9.402815,-1.275108,5.755417,-11.727518
19.104441,1.611355,3.002436,-9.340713,-4.227264,10.63288,-19.068103
19.137745,1.564218,2.932702,-9.236561,3.586941,31.683751,7.232393
19.171111,1.549702,2.78306,-9.253621,7.096069,41.702047,9.733974
19.204432,1.47114,2.779767,-9.219352,4.584312,10.282715,-11.355505
19.237744,1.538928,2.906814,-9.824209,1.828487,-15.813518,-15.175591
19.271281,1.94027,2.97161,-10.30142,0.324875,5.234361,-9.635659
19.304376,0.982406,2.231925,-9.573707,0.086344,7.70302,-8.455126
19.337742,1.545063,4.710012,-10.189936,0.195733,3.464534,-9.025415
19.371469,3.598913,5.580335,-10.752594,0.667856,3.305463,-9.213067
19.404419,0.835307,5.205031,-12.1751,0.480504,3.335242,-9.162488
19.43774,1.817713,4.262729,-17.886223,0.405981,3.305313,-9.167127
19.47105,5.25546,-0.449078,-10.657421,0.401193,3.274487,-9.185832
19.504424,7.360937,-1.020116,-7.557268,0.382487,3.272093,-9.276965
19.537742,7.113876,0.18421,-8.926351,0.351661,3.310701,-9.137647
19.571053,2.768694,2.266941,-9.802212,0.338043,3.266855,-9.104427
19.603735,0.695241,3.156568,-9.94527,0.497114,3.295736,-9.254668
19.637746,-0.796549,3.556115,-9.595255,0.441596,3.160908,-9.252274
19.671023,0.134529,4.931034,-11.666314,0.451622,3.158813,-9.304948
19.704409,0.801787,4.406237,-9.792934,0.556372,3.279126,-9.257212
19.737755,2.411795,4.678587,-9.976995,0.417205,3.176471,-9.216509
19.771088,3.053165,4.586107,-9.672322,0.530185,3.303069,-9.263497
19.804416,2.514301,4.608853,-9.117445,0.611441,3.372503,-8.979475
19.837718,1.368784,4.044998,-7.617873,0.44863,3.366068,-9.292228
19.871085,2.123733,3.690045,-5.981378,0.75854,3.288404,-9.385007
19.904415,0.746269,6.840329,-6.298621,0.408974,3.515562,-9.419724
19.937748,3.175423,10.841033,-11.918163,0.767369,3.568086,-9.289834
19.971076,1.293514,10.421135,-3.194129,0.900701,3.704262,-9.327544
20.004414,2.545726,10.293489,0.220873,0.453119,3.826819,-9.196906
20.037756,5.978834,17.805565,-7.206505,-1.1524,1.477724,-10.05436
20.071082,0.454466,-5.786393,-5.013787,-0.872418,1.3203,-11.263026
20.104466,0.656334,4.840201,-11.575929,0.045192,4.080763,-13.001279
20.137748,1.457522,4.086899,-9.628775,0.080358,1.139232,-15.939667
20.171086,1.073987,2.348496,-9.291331,-1.836418,7.680574,-15.763238
20.204411,1.340502,3.007075,-9.420772,-11.47911,2.793535,-24.920339
20.237714,1.266728,2.951258,-9.493648,-1.935183,-8.148358,-11.708812
20.271115,1.349779,2.969664,-9.367349,1.870986,-5.03354,-10.554167
20.304391,1.276005,2.945123,-9.344603,-1.304438,-1.278998,-11.065797
20.337748,1.285134,2.994056,-9.145578,-1.12322,2.331138,-12.068404
20.371111,1.287678,2.973555,-9.640597,0.499209,4.768821,-12.337911
20.404041,1.269421,2.926717,-9.461624,-1.861558,6.058893,-15.126508
20.437754,1.251614,2.888259,-9.38785,-1.069797,11.348921,-21.303918
20.471051,1.351425,2.881525,-9.390693,27.242349,65.508744,-5.270275
20.504414,1.425648,2.926717,-9.572959,1.666125,43.914818,-6.928169
20.537752,1.195797,2.681452,-9.395931,-1.322844,-8.095085,-6.354588
20.571098,1.302791,2.725746,-10.001835,0.386528,3.815147,-8.219887
20.604408,0.269208,-0.957266,-9.503225,0.388922,6.557504,-9.867456
20.637052,1.687224,4.832569,-9.763304,-0.064646,2.809097,-9.40072
20.67027,3.419192,5.257855,-10.226449,0.267711,3.34871,-9.236561
20.704416,1.017123,5.051796,-9.594806,0.818098,3.322822,-9.387701
20.737729,2.097096,1.049596,-16.330834,0.544102,3.210589,-9.263048
20.77109,6.47939,-0.102655,-13.571717,0.142909,3.035208,-9.241051
20.804296,6.973661,-1.550151,-8.509446,0.345526,3.038799,-9.388449
20.837695,6.802918,0.234191,-9.581189,0.344478,3.136067,-9.248084
20.871036,4.434369,2.446064,-10.186644,0.379345,3.027277,-9.286093
20.904362,0.511779,2.593312,-7.944245,0.250652,3.205801,-9.091108
20.937745,-1.049446,4.132989,-10.459294,0.324127,3.116165,-9.223243
20.971089,-0.74178,5.342852,-12.074989,0.405233,3.104792,-9.266939
21.004408,0.539762,4.973982,-9.981933,0.401791,3.1012,-9.282651
21.037752,1.637094,4.422697,-8.741991,0.439202,3.160309,-9.328891
21.071083,2.370045,4.253002,-7.393259,0.348069,3.123348,-9.271877
21.104411,3.055859,5.836225,-11.4206,0.518812,3.216276,-9.314675
21.137784,1.426995,4.770916,-8.103166,0.440998,3.144896,-9.302105
21.17119,0.612638,5.070951,-7.289856,0.427829,3.206848,-9.3253
21.204501,1.190559,5.009597,-5.893687,0.612489,3.238573,-9.505919
21.237848,0.455064,8.877717,-8.957776,0.58271,2.991811,-10.5826
21.271173,-1.208965,7.635681,-2.470156,0.327269,3.07606,-9.269183
21.304523,4.205116,10.669243,-4.592243,0.495169,3.719974,-9.604533
21.337836,1.37866,14.372756,2.17536,0.13408,2.227435,-10.090274
21.371183,-0.647954,-3.134571,-6.788103,0.099961,2.852943,-10.663706
21.404474,1.247124,2.719461,-9.615008,0.076767,3.601008,-12.116889
21.437802,1.226474,3.006028,-9.301506,2.380221,2.905617,-13.585933
21.471186,1.556885,3.00094,-9.339516,0.186904,4.778249,-12.516136
21.50453,1.390482,3.008871,-9.311383,-3.741822,-1.296955,-17.804069
21.537787,1.33706,2.864765,-9.472698,-11.459807,-1.288426,-15.593693
21.571188,1.354867,2.859677,-9.354779,-2.19616,-2.811342,-11.430327
21.604518,1.470392,3.05945,-9.440525,-1.821454,-2.662298,-9.436035
21.637419,1.381055,2.938838,-9.369145,-3.281371,0.795801,-11.010878
21.671171,1.367886,2.83753,-9.310485,-0.593185,1.136837,-10.223157
21.704489,1.365193,2.865962,-9.276965,1.770875,2.106224,-11.109043
21.737797,1.484907,2.980588,-9.438729,-0.179721,5.630914,-16.409397
21.771183,1.404249,2.903223,-9.387102,0.992432,14.614729,-16.769587
21.804451,1.394223,2.877933,-9.397876,21.080501,57.123352,-3.103595
21.837792,1.533691,3.152528,-9.571313,11.984604,46.169039,11.168152
21.871172,1.529201,2.760164,-9.548417,-0.660225,-4.243275,-4.821346
21.90454,1.375518,2.644341,-9.872244,0.757642,5.497732,-10.139956
21.938158,1.356214,3.008871,-10.305012,-0.486789,3.115117,-8.971544
21.971188,0.634785,2.497241,-9.449354,-0.111185,3.449569,-8.963762
22.004499,2.910855,4.811919,-10.795392,0.071679,3.262366,-9.361363
22.03787,3.21852,4.53912,-10.373548,0.549489,3.299627,-9.465365
22.071164,0.595579,2.362413,-11.347874,0.199773,3.262067,-9.182989
22.104506,5.456281,3.809909,-17.84956,0.170593,3.171383,-9.221148
22.137793,5.379065,-2.482427,-8.120973,0.260828,3.197122,-9.296269
22.171195,5.119285,-1.235452,-8.81816,0.291953,3.192034,-9.199001
22.204516,4.707019,0.517316,-9.594956,0.42738,3.107485,-9.223842
22.237855,3.158364,2.204091,-10.36442,0.249305,3.06768,-9.252723
22.27117,0.705866,2.337572,-8.996085,0.094874,3.230642,-9.130315
22.304516,0.304673,3.891614,-11.307021,0.235538,3.246653,-9.14887
22.337846,0.542605,4.605112,-11.16067,0.196182,3.208943,-9.207381
22.371101,1.146564,4.257342,-9.721105,0.221472,3.224955,-9.157999
22.404517,1.901812,4.141817,-8.431033,0.190645,3.191734,-9.240751
22.437851,2.271281,4.934327,-9.132859,0.429176,3.237675,-9.341162
22.471171,1.684082,4.427636,-7.304222,0.434862,3.257727,-9.295072
22.503967,1.193702,4.702979,-7.769611,0.388623,3.262216,-9.244343
22.537852,2.277117,5.950701,-9.919831,0.211745,3.166295,-9.309138
22.571169,2.130018,7.577919,-11.532533,0.270704,3.257428,-9.36286
22.604516,0.437257,7.480052,-7.323077,0.120762,3.361878,-9.422418
22.637102,0.922399,7.484991,-4.168903,0.286417,3.475308,-9.468657
22.67117,-2.664842,9.702549,0.872269,1.075783,3.532172,-9.67696
22.704495,14.581508,17.268347,-19.008695,-0.191992,2.721706,-10.535911
22.73783,-0.963102,-7.89157,-0.597524,-0.38548,3.840137,-9.946617
22.771212,0.140515,3.536362,-9.640448,-0.134679,2.20858,-11.347724
22.804522,1.393176,3.590383,-9.037835,1.628714,4.29595,-15.526653
22.83785,1.355316,2.931805,-9.294473,-1.537881,2.170421,-14.084843
22.871113,1.619436,3.132775,-9.50098,-4.365833,-0.105947,-16.033643
22.904519,1.505109,3.07606,-9.404161,-11.477764,4.030034,-20.346951
22.937838,1.449442,2.830945,-9.232521,-2.389948,-3.517806,-11.055771
22.971131,1.510496,3.031168,-8.988603,-2.811342,-3.770104,-8.352022
23.004298,1.55479,3.044186,-9.304798,-3.494911,-0.205011,-10.764715
23.037882,1.531895,3.019495,-9.325599,-3.829363,3.166145,-11.234295
23.071179,1.565864,3.005728,-9.355078,-0.169396,3.952968,-10.743316
23.10451,1.557933,3.038051,-9.347147,-0.363034,3.392555,-10.86303
23.137878,1.55898,2.952306,-9.244792,-3.291397,14.681021,-23.46581
23.171203,1.468147,2.897985,-9.093503,-3.769805,19.076333,4.456517
23.2045,1.310872,3.145195,-9.290582,24.177961,44.233557,13.416987
23.237765,1.484159,3.132027,-9.744599,10.80437,42.507426,-13.521886
23.271185,1.763542,2.589272,-9.630272,0.816751,-14.543499,-5.051647
23.304499,0.607101,0.977318,-9.47599,0.161614,3.49132,-5.906706
23.337855,1.817114,4.605561,-10.069923,0.341784,5.387894,-9.168174
23.371169,3.073217,4.81147,-9.859375,0.113729,3.110778,-9.043671
23.404008,1.135042,2.968018,-10.557759,0.440698,3.437747,-9.43843
23.437836,1.802749,1.213155,-17.42637,0.337445,3.316836,-9.187329
23.471203,5.350633,-1.200436,-8.586213,0.537966,3.22286,-9.332632
23.504521,4.233249,-0.397452,-6.126682,0.672645,3.370558,-9.181493
23.53784,5.702444,0.531083,-8.085657,0.788469,3.217772,-9.392639
23.571183,3.719525,2.554255,-8.871732,0.028283,3.145495,-9.212169
23.604413,-0.346274,2.875838,-7.070929,0.462097,3.332997,-9.1366
23.637869,-0.773205,4.012077,-10.128284,0.345077,3.242164,-9.228331
23.671143,0.499508,5.278655,-11.074626,0.523451,3.247252,-9.19526
23.704503,0.549339,4.921757,-9.598996,0.536171,3.245756,-9.252274
23.737846,1.87772,4.691007,-10.417843,0.415259,3.178715,-9.155305
23.771187,2.145431,3.775791,-9.606928,0.504596,3.299477,-9.155754
23.804125,1.340053,3.505685,-8.869637,0.597075,3.162554,-9.307043
23.837835,0.562657,3.60849,-8.919318,0.628201,3.149385,-9.223093
23.871185,1.095087,3.907028,-8.555536,0.567296,3.197122,-9.3461
23.904519,1.925905,4.255247,-7.537515,0.59917,3.229295,-9.346698
23.937833,1.944311,5.400015,-8.968401,0.694493,3.224806,-9.366751
23.971169,1.056479,6.496898,-9.181642,0.623861,3.228098,-9.426907
24.004514,2.089315,5.828293,-6.006518,0.860597,3.418593,-9.6394
24.037917,2.732779,9.008056,-0.035316,0.452071,3.463187,-9.190322
24.071171,5.359911,18.860698,6.048568,0.959211,3.504039,-9.561885
24.104318,-9.327694,19.050595,-24.372197,-1.085061,-0.069734,-10.991873
24.137867,0.305122,1.719996,-9.292827,-0.699281,1.704433,-11.807577
24.171174,2.276069,5.038478,-10.90942,0.659626,4.227862,-15.357706
24.204495,1.890888,3.570481,-9.823162,-2.989268,2.370943,-13.258215
24.237833,1.54222,3.222561,-9.389047,-1.016973,2.79144,-22.500613
24.271169,1.447945,3.025182,-9.11131,-9.954099,-2.311385,-15.540869
24.304483,1.83163,2.945123,-10.29753,-1.892834,-4.138675,-10.81305
24.33785,1.614348,2.908011,-9.483622,-3.732694,-2.225939,-9.615756
24.371242,1.632455,2.961284,-9.360017,-2.37199,1.172303,-11.331413
24.404465,1.622878,2.993308,-9.310186,-1.507952,2.792637,-10.746309
24.437847,1.591752,2.818375,-9.254967,0.007931,4.711059,-11.423743
24.471198,1.673756,3.039548,-9.259008,-1.973342,6.539097,-14.701971
24.504462,1.560477,2.987023,-9.184037,-8.237994,10.765763,-16.632514
24.537878,1.659989,2.93809,-9.263198,15.496126,49.50458,10.366665
24.571193,1.669267,2.95036,-9.379171,9.642543,32.772703,14.586596
24.604452,1.526059,3.154024,-9.285046,0.199025,28.977758,-59.711277
24.637866,1.910342,2.798622,-9.677559,0.994677,-3.20595,-7.390117
24.671181,1.481016,2.584783,-9.879727,1.598785,6.006369,-9.695516
24.704869,0.812711,1.800953,-9.866259,-0.180469,3.368912,-8.821152
24.737827,2.916541,5.649769,-10.625996,0.350314,3.318931,-9.141837
24.771185,3.545341,5.433685,-9.849349,0.583458,3.277031,-9.260055
24.804503,1.075484,3.580507,-9.913546,0.590491,3.088032,-9.343855
24.837794,0.648702,2.848154,-17.25458,0.516119,3.228696,-9.301955
24.871168,4.238337,-0.643914,-10.187542,0.634336,3.316537,-9.208728
24.904521,4.613193,-1.206571,-6.618408,0.558318,3.248,-9.159794
24.937846,6.394243,0.420946,-8.479967,0.565052,3.2272,-9.167576
24.971183,4.296997,1.89433,-8.792122,0.647954,3.191136,-9.256763
25.004483,2.203642,3.355444,-9.574904,0.572833,3.097908,-9.208578
25.037856,-0.112831,4.730363,-9.776473,0.588396,3.124545,-9.32515
25.07118,0.509534,5.484115,-11.279038,0.646607,3.234233,-9.20349
25.104527,0.825879,5.136345,-10.029968,0.498161,3.274936,-9.06941
25.137854,2.289537,4.800396,-9.483771,0.613087,3.248599,-9.140191
25.171212,2.196908,4.454422,-9.271877,0.75839,3.182157,-9.312281
25.204506,1.218842,4.073131,-8.358905,0.66621,3.080999,-9.330986
25.237837,1.056479,4.133737,-8.30668,0.829471,3.17662,-9.222794
25.271161,1.16527,4.738294,-7.629995,0.635384,3.165697,-9.255267
25.3045,1.376865,6.476547,-10.516906,0.671897,3.208494,-9.223991
25.337743,0.023644,5.665632,-8.390929,0.623263,3.167492,-9.370641
25.371177,-1.286331,5.952497,-7.674887,0.944696,3.209542,-9.575054
25.404513,1.242336,5.730876,-6.138952,0.966095,3.428021,-9.425111
25.437863,1.138035,10.933063,-3.691542,1.059622,3.556414,-9.311532
25.471166,2.195561,20.742757,4.193893,0.850571,3.433707,-9.323205
25.504524,-1.599683,-4.579673,1.94446,0.487686,3.12664,-10.454206
25.537858,-0.879152,3.557462,-9.343257,-0.685814,0.011822,-10.786413
25.571168,1.747381,3.360681,-10.696627,-0.338941,3.300375,-12.516735
25.604519,1.595643,2.965175,-9.420173,1.847342,4.472977,-14.654234
25.637853,1.452135,3.155222,-9.405508,-1.767433,3.337337,-13.685147
25.671169,1.578135,2.956047,-9.712276,-5.219995,6.708044,-26.183625
25.704517,1.466052,3.035358,-9.316321,-7.075268,-6.655969,-11.935222
25.737858,1.413677,2.856983,-9.382164,-2.237312,-2.828252,-11.96545
25.77117,1.496429,2.945871,-9.324851,-3.75933,-1.079375,-10.948776
25.804497,1.511244,3.020393,-9.386503,-1.293813,1.248022,-11.510835
25.837696,1.47952,2.908311,-9.340563,-0.018406,3.156119,-12.322648
25.871024,1.508551,3.002286,-9.310485,0.150242,5.232565,-15.023104
25.904466,1.456176,2.999743,-9.294024,0.876459,9.70644,-18.525049
25.937851,1.457522,3.018298,-9.423316,8.265528,59.794029,29.653546
25.971193,1.304288,2.880926,-9.412691,3.69633,41.568267,7.846079
26.004526,0.992282,2.882572,-9.330836,6.337977,4.401448,-16.792333
26.037848,0.651246,-0.751058,-9.208279,-0.763029,-0.229702,-7.381737
26.071227,2.38471,2.402368,-10.244257,-0.095173,3.325964,-8.73421
26.104528,3.153575,6.305804,-11.827479,0.650049,3.283316,-9.449653
26.137842,1.928299,4.126853,-10.927975,0.619671,3.200114,-9.433192
26.171147,-3.179164,-0.566399,-19.765289,0.391466,3.463187,-9.124179
26.204521,4.20781,1.124716,-13.833593,0.349267,3.230941,-9.252573
26.237835,9.58508,-2.299713,-7.342082,0.322181,3.155521,-9.274421
26.270753,9.545125,-1.688272,-6.192225,0.631344,3.35724,-9.297017
26.304508,4.146007,1.989802,-9.219801,0.193339,3.313544,-9.087517
26.337538,0.164308,3.65877,-9.300608,0.33939,3.267454,-9.172664
26.371167,-1.084612,4.623817,-8.439264,0.525247,3.186347,-9.384558
26.403932,0.183911,5.584974,-11.09797,0.278934,3.27733,-9.149768
26.437778,0.488285,6.323013,-10.933363,0.083201,3.233186,-9.116997
26.471167,2.404313,5.977488,-8.684079,0.525396,3.305463,-9.234766
26.504534,3.416049,5.803752,-8.770124,0.348518,3.177369,-9.293725
26.537836,2.741159,5.453588,-8.723885,0.442045,3.23977,-9.213965
26.571222,0.585852,6.204197,-8.655348,0.798644,3.181858,-9.378273
26.604507,-0.713946,6.50468,-8.819506,0.335499,3.191435,-9.346998
26.637405,-0.656035,5.45239,-7.903542,0.520608,3.257428,-9.423016
26.671188,0.951879,5.623732,-7.908181,0.577771,3.283914,-9.361513
26.704523,2.438581,9.015389,-12.149511,0.448779,3.478151,-9.364506
26.737836,0.537817,7.261723,-5.656054,0.866433,3.572875,-9.379021
26.770323,0.73355,7.558765,-1.277053,0.742828,3.52888,-9.315573
26.803535,2.053101,14.204557,-2.186583,0.60336,3.589934,-9.849648
26.837844,-0.320086,16.713022,-27.708786,-0.091133,1.315362,-10.157314
26.871199,-0.642866,3.073816,-9.129417,-0.323827,2.386206,-11.32019
26.904506,1.22782,2.087369,-9.43005,1.923211,5.453139,-14.143353
26.937842,1.431634,3.412458,-9.451149,0.37306,1.484009,-14.187648
26.971188,1.315062,3.221813,-9.391292,-0.176728,8.244578,-12.808688
27.004502,1.301445,3.13472,-9.526719,-0.31425,8.780749,-25.859648
27.037837,1.264782,2.969664,-9.246288,-5.677453,-4.860253,-13.723605
27.071152,1.314613,2.952455,-9.474793,-2.158749,-2.054298,-12.194404
27.104512,1.430437,3.050322,-9.399223,-0.447732,-1.122172,-10.155369
27.1379,1.359506,3.06364,-9.355677,1.396169,2.662747,-11.273052
27.171132,1.259545,2.872097,-9.251974,1.504211,4.113236,-11.392168
27.204514,1.320898,2.994355,-9.231922,-0.563855,3.752447,-11.526098
27.237804,1.284834,3.022488,-9.563681,-1.349929,6.485974,-16.311231
27.271182,1.35367,3.00079,-9.503075,-3.612231,13.389901,-16.904565
27.304526,1.215999,3.100901,-9.385007,15.606562,34.887607,3.132775
27.337834,1.261789,2.98403,-9.330986,15.239787,48.89703,20.715073
27.371231,1.405297,2.709136,-9.862218,-10.86333,13.558848,3.896253
27.404546,1.414724,3.066483,-10.218069,5.38535,16.205433,-13.515302
27.437837,1.621082,4.367479,-10.264608,2.825408,5.773524,-10.177366
27.471381,2.488562,6.370899,-9.750285,0.068985,3.447773,-9.439926
27.504511,3.130979,6.473404,-10.805867,-0.051028,3.54968,-9.200497
27.537838,1.377463,9.544227,-8.513636,-0.018705,3.749304,-9.031999
27.571098,-0.404186,0.98899,-13.028813,0.043247,3.690644,-9.128669
27.60453,5.286137,4.532685,-17.446273,-0.115524,3.659668,-9.032448
27.637837,6.641902,-1.53818,-2.180298,-0.017508,3.661164,-9.029306
27.671338,5.33522,0.81705,-3.643207,0.11298,3.586642,-9.125676
27.704498,5.044464,3.83894,-6.175166,0.031126,3.639017,-9.081382
27.737848,2.200799,7.3135,-8.847639,0.108192,3.643656,-9.133008
27.771183,1.075484,6.085679,-8.219438,0.017508,3.556414,-9.099189
27.804502,0.564752,6.054703,-9.442171,0.094275,3.582153,-9.057588
27.837848,2.42227,5.871391,-10.530225,0.158322,3.614326,-9.168324
27.871189,1.305335,6.29503,-9.678457,-0.05013,3.419491,-9.185832
27.904502,0.649301,6.200755,-8.703383,-0.030378,3.557162,-9.028857
27.937879,5.287334,7.407176,-10.467524,-0.009727,3.508977,-9.229378
27.97099,2.295224,12.460319,-5.237503,-0.031275,3.431163,-9.151414
28.003943,-1.004852,13.781966,-2.357625,-0.259331,3.574671,-8.764138
28.03781,-2.273974,12.227475,-16.842014,-0.327868,3.513317,-8.973639
28.071113,2.455192,-4.020756,-3.861087,0.181966,3.615374,-9.068812
28.104501,-0.567446,4.237888,-10.832503,0.277887,3.621958,-9.116398
28.137837,0.118966,2.806703,-9.564579,-0.315148,3.56659,-8.88924
28.17117,1.709521,2.801017,-9.355228,-0.103703,3.4575,-8.948948
28.204559,1.330924,2.905318,-9.359418,0.248557,3.493564,-9.272326
28.237831,1.173201,2.575205,-9.816577,0.030826,3.536811,-9.185832
28.271172,1.503612,3.124245,-9.633414,0.612489,3.525887,-9.164134
28.304523,1.480867,2.920282,-9.339067,-0.07946,3.070374,-9.464916
28.336797,1.255205,2.43918,-9.127771,0.395506,3.558809,-9.326497
28.371192,1.402304,3.436101,-9.76929,0.320236,3.494013,-9.222944
28.404489,1.261191,3.114668,-9.2412,0.154282,3.195326,-9.154856
28.437849,1.20283,2.912052,-9.426907,0.26816,3.530975,-9.344903
28.471201,1.205374,3.383726,-9.802511,0.166104,3.307708,-9.121037
28.504516,1.434627,2.167279,-8.769077,0.027983,2.350442,-9.009104
28.537867,1.262986,2.797126,-9.437532,0.690901,3.119457,-9.42167
28.571148,1.670614,2.341912,-8.683331,0.152935,2.73263,-9.220549
28.604234,1.243234,2.684594,-9.186132,0.170294,3.062742,-9.198103
28.637827,1.321048,3.17273,-9.451897,0.246013,3.352601,-9.354181
28.671165,1.242036,2.811791,-9.33368,0.07123,3.235729,-9.297017
28.704503,1.279447,3.244109,-9.56832,0.157724,3.239022,-9.201246
28.737852,1.255654,2.936294,-9.339965,0.324576,3.157765,-9.268136
28.771171,1.387789,2.854589,-9.239704,0.520309,3.280622,-9.451897
28.804521,1.055432,3.186198,-9.323803,0.363932,3.11811,-9.336523
28.837847,1.260143,2.960237,-9.229678,0.014066,3.098806,-9.185234
28.871186,1.222433,2.82496,-9.160393,0.108042,3.197421,-9.282502
28.904519,1.22797,2.942878,-8.917373,0.102206,3.268501,-9.272924
28.937874,1.379259,2.95904,-9.233718,-0.11717,3.054063,-9.12403
28.970377,1.372675,2.8917,-9.210823,0.018705,3.065286,-9.187478
29.004258,1.256851,2.949462,-9.330238,0.16775,3.149385,-9.249131
29.03775,1.325986,3.004082,-9.318266,0.148446,3.165996,-9.280407
29.071171,1.343045,2.99256,-9.36301,0.151439,3.075761,-9.213367
29.104492,1.332271,3.010816,-9.344903,0.173735,3.074863,-9.206932
29.1374,1.241887,2.995403,-9.386803,0.210847,3.14325,-9.232371
29.171183,1.239792,2.968317,-9.351637,0.23449,3.090127,-9.243445
29.204511,1.256851,2.993158,-9.401617,0.144256,3.136367,-9.259606
29.237836,1.292017,2.952455,-9.3253,0.190795,3.146393,-9.236711
29.271169,1.270469,2.936743,-9.363758,0.160268,3.172281,-9.242697
29.304525,1.298751,2.983282,-9.353283,0.179572,3.190088,-9.278312
29.337849,1.305036,2.779019,-9.186281,0.140664,3.135319,-9.22863
29.371172,1.258348,2.936294,-9.326946,0.224315,3.207597,-9.292977
29.403941,1.250566,2.981785,-9.375729,0.145453,3.103295,-9.249879
29.437852,1.258198,2.939736,-9.340862,0.167151,3.099554,-9.209326
29.471175,1.281393,3.005878,-9.394435,0.23045,3.192034,-9.266191
29.504502,1.263435,3.011115,-9.416731,0.137672,3.110478,-9.221597
29.537849,1.262986,2.971011,-9.371539,0.261576,3.162554,-9.292079
29.570571,1.274509,2.973106,-9.330537,0.145453,3.13906,-9.246587
29.604503,1.29486,2.982534,-9.352086,0.165355,3.191734,-9.270979
29.637621,1.267625,2.944075,-9.349991,0.177028,3.164649,-9.275169
29.671206,1.270469,2.945422,-9.320212,0.192142,3.206399,-9.286841
29.704506,1.273761,2.962631,-9.358371,0.175531,3.178715,-9.257661
29.737401,1.296058,2.9339,-9.344304,0.124802,3.139808,-9.245689
29.77117,1.236949,2.92552,-9.354031,0.173735,3.19757,-9.256913
29.804513,1.230514,2.977446,-9.357772,0.16341,3.155371,-9.251675
29.837756,1.264333,2.877035,-9.29567,0.144256,3.131578,-9.230576
29.871138,1.240091,2.991213,-9.355078,0.168049,3.186048,-9.256464
29.904503,1.251913,2.906964,-9.28744,0.211445,3.16824,-9.151714
29.937895,1.298153,3.04269,-9.360017,0.183163,3.187993,-9.291779
29.971183,1.327333,2.946021,-9.390245,0.141562,3.144447,-9.330986
30.004526,1.201932,2.904869,-9.535099,0.143358,3.184851,-9.260504