time_tick,acc_X_value,acc_Y_value,acc_Z_value,acc_A_value,acc_B_value,acc_C_value
0.031053,1.865748,3.001987,-9.042175,-1.540574,3.763819,-8.355464
0.064434,1.803347,2.920581,-9.016287,-1.560477,3.790755,-8.863352
0.097716,2.184787,3.255782,-9.565925,-1.80215,3.593975,-9.05699
0.131056,2.072555,3.309354,-9.127771,-1.574992,3.638419,-8.718048
0.164425,1.94042,3.288553,-9.327694,-1.702488,3.872011,-8.875922
0.19779,1.901663,3.252489,-9.231922,-1.66388,3.711594,-8.810827
0.231122,1.890888,3.287057,-9.356874,-1.630809,3.659369,-8.855271
0.264424,1.81876,3.15597,-9.133457,-1.766385,3.726708,-8.832825
0.297755,1.783445,2.957992,-8.880561,-1.675851,3.636922,-8.808882
0.33119,1.599085,2.652272,-8.402003,-1.694407,3.352601,-8.764288
0.364414,1.87757,3.5624,-9.45085,-1.465603,3.943241,-9.039033
0.397783,1.975137,3.539654,-9.34206,-1.773419,3.770254,-8.914979
0.431081,1.792573,3.334194,-9.073301,-1.651759,3.656675,-8.890587
0.464423,1.868292,3.453011,-9.241499,-1.63455,3.715335,-8.896273
0.49781,1.819209,3.314891,-9.091258,-1.622429,3.854054,-8.971693
0.531118,1.775065,3.235729,-8.946104,-1.582773,3.733741,-8.937724
0.56438,1.78554,3.282418,-8.973639,-1.830433,3.52484,-8.871582
0.597761,1.885202,3.182307,-8.970047,-1.592201,3.724912,-8.875473
0.631094,1.688272,2.743105,-8.629011,-1.615096,3.5832,-8.895375
0.664421,1.528752,3.509127,-9.502926,-1.538329,3.702167,-9.007159
0.697753,1.697849,3.76367,-10.045082,-1.840608,3.858693,-8.882356
0.731093,1.558232,3.345118,-9.695965,-1.704882,3.674632,-8.94775
0.764506,2.173414,4.28308,-11.1484,-1.821304,3.723117,-8.846891
0.797786,-1.275407,4.913227,-11.126552,-1.580678,3.730299,-8.810528
0.831059,-5.534694,7.514171,-12.118385,-1.502415,3.852857,-8.964361
0.864447,-8.728972,8.703982,-10.440738,-1.93219,3.346316,-8.819806
0.89776,-6.76027,10.004529,-9.177452,-1.632455,3.909721,-8.933684
0.931068,-0.932874,9.931054,-5.43159,-1.665077,4.270061,-9.007757
0.964368,6.094808,7.913718,-5.227926,-1.33691,3.908973,-9.00671
0.997788,6.685299,5.268629,-7.363181,-1.492539,3.804073,-8.908843
1.03108,2.387104,3.291397,-8.090745,-1.659241,3.510923,-8.70054
1.06447,3.250694,1.704134,-10.526932,-1.794369,3.464384,-8.783293
1.097722,3.466629,0.294497,-10.545937,-1.462311,3.62121,-8.802148
1.131056,1.280794,1.01832,-8.976033,-1.405447,3.897301,-9.029306
1.164423,1.948351,2.056842,-10.387615,-0.992731,4.112188,-9.159345
1.197733,1.322095,2.316174,-8.826989,-1.77267,2.254371,-8.479069
1.231005,-0.439801,5.030846,-10.400185,-1.484009,3.34452,-8.797509
1.264409,-2.484671,5.952796,-7.780386,-1.598037,3.825622,-8.900912
1.297728,-4.988497,11.439156,-10.003332,-1.514387,3.610286,-8.837164
1.331057,-3.777736,18.21843,-5.596796,-1.39572,3.934113,-8.983216
1.364388,10.609236,11.267216,-2.476441,-1.075634,3.976163,-9.141837
1.397703,16.150365,9.115051,-0.011373,-0.948437,4.118473,-9.208428
1.430644,47.569248,-0.962803,-25.694592,-1.464107,3.241266,-9.065968
1.463691,10.679119,6.573964,-12.051345,-1.907499,3.121851,-9.022871
1.496881,-12.113447,7.252445,-10.003032,-1.444952,3.570032,-9.514149
1.530225,-0.256488,0.569092,-6.460685,-4.625613,4.441702,-9.324102
1.563558,2.104279,7.020499,-16.205284,-11.192395,3.292594,-9.945121
1.596891,-0.672795,1.83986,-8.473831,-6.9991,4.691157,-8.811875
1.630217,-0.848476,-3.051968,-0.96819,-4.119072,5.075889,-8.65864
1.66356,2.115802,8.089398,-19.37951,-4.916369,3.610585,-8.663878
1.696817,2.202445,1.452883,-7.147546,-2.733228,2.7033,-8.588907
1.730223,0.874813,0.483047,-5.508955,-1.217944,2.293877,-9.17431
1.763559,2.606032,6.242505,-15.055727,-1.394972,1.63455,-9.827202
1.796867,1.971546,2.151117,-8.577085,-3.218969,1.892534,-10.93037
1.830222,0.987643,2.215314,-8.585016,-5.515689,1.310573,-10.32267
1.863562,1.721792,3.571977,-10.471116,-6.038392,1.648467,-10.208043
1.896995,1.64293,2.383812,-9.049358,-4.97039,2.475543,-10.25533
1.930218,2.047265,3.223908,-9.780813,-4.109495,3.576616,-10.439691
1.963565,1.503463,3.257128,-9.590766,-3.740774,4.233848,-10.432807
1.996895,1.116785,2.739813,-8.89777,-3.840886,4.814014,-10.119754
2.030195,0.818697,1.824297,-7.916411,-4.053378,5.299455,-10.02922
2.063563,1.537731,3.727307,-9.793832,-4.14511,5.205928,-8.917074
2.096895,2.472999,3.489823,-9.747742,-3.538457,5.199793,-8.52471
2.130249,1.571101,3.145794,-9.251226,-2.243297,6.718669,-9.791437
2.163553,1.646072,3.00917,-8.902109,0.636282,6.861129,-7.323227
2.196897,1.668968,3.199516,-9.223991,0.68327,7.928832,-5.001815
2.230214,1.643528,3.000491,-8.887594,-1.15659,9.225937,-3.189041
2.263555,1.624524,3.036704,-8.844347,-4.114134,11.527146,-2.118046
2.296896,1.993394,3.20191,-8.874276,3.455256,0.766172,11.362988
2.330292,3.129633,3.29843,-10.164946,14.275339,16.895587,-24.89894
2.363581,3.677026,3.505985,-10.426971,-5.891892,9.838724,-18.18491
2.396897,3.011564,3.939201,-10.01261,-5.725788,1.648317,-8.58741
2.430236,8.173348,5.803004,-19.311722,1.159882,4.35431,-10.814696
2.463555,16.31976,-2.671576,-20.673622,-1.522318,3.779682,-9.810292
2.496883,0.000299,-1.092394,-13.606734,-0.380243,3.293342,-9.092904
2.530132,-3.202359,-2.798323,-3.807216,-1.765188,3.346465,-8.955532
2.563575,-0.773504,0.822438,-11.101262,-2.322309,3.968232,-9.078987
2.596889,1.05214,1.243533,-9.186281,-1.610906,3.888472,-9.125227
2.630163,5.291524,-0.600816,-9.061629,-1.237697,3.261917,-8.865147
2.663561,8.886995,-1.995788,-10.005726,-1.478023,4.033326,-9.07779
2.696889,7.859248,1.635747,-13.527722,-1.180832,3.91855,-9.083327
2.73052,4.737097,3.605946,-12.175549,-1.44166,3.6673,-8.984413
2.763573,-0.856407,6.779274,-14.039501,-1.232609,3.730748,-9.007907
2.796882,-6.572917,10.628091,-9.152013,-0.966993,3.955362,-9.051603
2.830377,-9.356575,12.269674,-6.993114,-1.612552,3.574521,-8.861406
2.863568,0.320535,10.384173,-3.056308,-1.408739,3.690494,-8.912884
2.896891,4.458612,8.487598,2.206036,-1.108555,4.097822,-9.090659
2.930321,-0.328317,14.09023,8.73017,-1.745884,3.803774,-9.131512
2.96355,-25.604656,12.398068,-20.306698,-2.89619,2.771836,-8.770723
2.996894,5.953994,5.017827,-10.599958,-2.0537,1.644277,-9.873741
3.030136,10.265805,7.540957,-19.56387,-0.278934,2.029757,-10.337185
3.063451,0.531083,4.56815,-11.610347,-4.806831,4.303731,-10.651735
3.096844,0.918658,2.981037,-8.684977,-8.628263,-1.037325,-14.774697
3.130283,1.768031,3.059749,-9.260354,-10.090125,0.390568,-19.51793
3.163596,1.692911,3.022039,-9.250628,-2.25482,-5.867799,-10.19682
3.196879,1.753067,2.891401,-9.254967,-2.130766,-2.431249,-11.717043
3.230231,1.789281,3.37819,-9.392788,-3.454358,-0.175531,-12.704088
3.263676,2.027363,2.970412,-9.075396,-3.561502,0.231348,-11.150345
3.297028,2.272927,3.441638,-9.45908,-3.249796,0.172987,-10.022486
3.330179,2.328893,3.13083,-9.315273,-4.517272,1.79781,-12.964017
3.36355,1.906152,3.3948,-9.567123,-3.976163,2.891251,-12.898175
3.396907,1.760699,2.947667,-8.733162,0.383834,5.199793,-13.090915
3.43022,1.856321,3.0593,-8.954784,1.342597,6.113513,-11.44559
3.46357,1.740647,3.3948,-9.067465,-0.2095,10.02503,-11.045445
3.497702,1.933537,3.28152,-9.02751,0.126598,16.177151,-3.960151
3.530188,1.995489,3.483389,-9.199151,-0.022746,17.244554,2.666937
3.563486,2.01599,3.307558,-9.23716,-0.094874,15.697844,2.228932
3.596894,2.260506,2.344157,-8.733013,3.283466,-14.414656,-16.229975
3.630166,2.32605,3.815895,-9.46342,-1.451537,24.499693,-21.328759
3.663561,3.560006,2.725148,-10.000937,-11.161568,9.718711,-14.158767
3.696865,6.800075,3.36547,-14.02753,-2.616657,7.125548,-11.877161
3.7302,13.747099,-8.121721,-26.811377,-1.265381,2.716019,-9.429601
3.763559,5.094893,-2.87075,-14.42573,-0.844286,4.340094,-9.528365
3.796887,0.068088,-0.742379,-7.712149,-1.161379,3.237974,-8.942513
3.830232,2.111013,0.352858,-8.580975,-2.192269,3.575718,-8.73406
3.863572,4.359398,1.109154,-7.934219,-1.448244,3.656226,-8.980073
3.896888,6.421927,2.203343,-10.358434,-1.552396,3.694984,-8.747378
3.930138,8.174246,1.186818,-8.88071,-1.899268,3.238872,-8.746481
3.963566,6.29503,2.443669,-10.392553,-1.768031,3.896553,-9.048011
3.996898,6.386013,5.372331,-16.241797,-1.891936,3.922591,-9.09859
4.030159,2.138547,6.019986,-10.702015,-1.931591,3.169887,-8.77177
4.063552,4.805484,7.823633,-7.485888,-1.708474,3.781477,-8.861855
4.096811,5.362305,14.040549,-14.632087,-1.468596,3.80542,-9.037686
4.130173,-0.856856,13.967523,0.351062,-1.547308,3.325066,-8.80544
4.163587,-3.34871,15.608657,1.049296,-1.354119,4.09872,-9.090959
4.196898,-3.710098,14.600962,-2.813587,-1.675103,3.909572,-9.050256
4.230227,-3.109132,8.032384,9.153958,-1.656847,3.553421,-9.34176
4.263551,2.289687,14.694937,-18.140317,-1.245478,3.724164,-9.917736
4.296899,10.525735,8.363844,-17.737029,-2.144533,1.703835,-9.976097
4.330231,2.432596,4.588801,-12.544568,-0.673094,-0.397302,-10.75005
4.363512,1.989054,4.641475,-10.424128,-5.119435,2.769143,-12.591406
4.396915,1.157189,2.789045,-8.874874,-6.687693,-8.043009,-19.849389
4.430258,1.385245,3.220466,-9.521182,-4.074329,-5.936336,-15.771469
4.463554,2.080187,3.377142,-9.913995,-4.013274,-4.465645,-10.290197
4.496897,2.430501,2.935546,-9.048161,-5.317861,-2.645687,-10.11706
4.530339,2.234319,2.907562,-9.183438,-4.912628,-0.552631,-11.201972
4.563577,2.016738,3.217473,-9.476738,-5.081126,2.595407,-13.065176
4.596897,2.120141,3.151032,-9.157101,-4.319144,3.995916,-12.305588
4.630201,1.57993,2.732181,-9.046066,-3.259373,3.777287,-10.266703
4.663551,1.781649,2.023921,-8.082066,-3.214929,5.740303,-12.644829
4.696893,2.105925,2.944973,-9.048161,-2.856684,9.948562,-14.988088
4.730221,2.125379,2.496344,-8.52875,0.324875,8.991147,-10.253385
4.763566,2.483774,3.296185,-9.190771,-1.602227,12.192758,-5.935288
4.796888,2.845161,4.108597,-9.489607,-0.323678,15.513484,1.544016
4.830226,2.347,3.215079,-9.049508,-0.841592,17.101495,2.694022
4.863549,2.301957,2.515498,-8.546408,-0.963102,12.770828,12.921668
4.896881,1.397366,3.583799,-8.396166,-3.618217,10.703212,-9.135103
4.930254,1.160182,1.771922,-7.558765,0.160567,9.686687,-17.298276
4.963568,15.213301,17.328653,-12.883809,-6.863224,5.071699,-11.902301
4.996961,7.073772,2.116251,-12.923763,-6.028815,5.164328,-10.611481
5.030227,2.951258,-0.101009,-30.365397,-0.074971,4.591046,-11.306572
5.06354,-2.920731,-4.098122,-10.122148,-0.492325,3.343173,-10.040742
5.096874,3.303218,-0.982855,-10.542196,-1.813673,2.214267,-8.617189
5.130219,4.728717,0.167301,-7.510879,-2.291782,2.723053,-9.131512
5.163564,6.233527,3.168839,-12.585271,-2.177754,1.686476,-8.148507
5.196858,3.924087,4.413719,-11.519664,-1.161229,2.028859,-8.41577
5.23022,4.174889,3.882636,-9.416881,-2.495595,3.987835,-9.496341
5.263553,4.777501,4.037816,-10.757532,-1.05184,3.829962,-9.577747
5.296819,1.379259,5.551005,-7.879599,-1.759651,4.561267,-9.745647
5.330294,1.590106,9.421969,-11.661974,-1.761447,3.630637,-9.112956
5.363653,3.057654,9.300459,-15.083859,-1.859164,3.676129,-9.108916
5.396821,1.216448,7.76617,-6.682156,-1.696951,3.924087,-9.213067
5.430348,2.114156,7.981805,-4.761788,-1.722091,3.503141,-8.981719
5.463554,2.075099,11.322285,-5.133501,-1.443456,3.965538,-9.217856
5.496828,-0.0208,18.329166,17.150279,-1.822053,3.736734,-9.053249
5.530232,-23.137942,5.884709,-42.667693,-1.758754,3.873358,-9.250179
5.563534,8.148358,7.113427,-17.009315,-2.846807,1.917974,-9.25377
5.596865,9.557096,6.278719,-15.607909,-1.125016,0.531083,-10.102844
5.630212,1.903009,2.916541,-9.976995,-0.714994,0.235987,-10.905978
5.663573,0.274296,4.986851,-12.666827,-9.830793,-0.210099,-15.461708
5.697761,1.312518,3.095963,-9.288487,-9.389047,2.892748,-23.495738
5.730234,1.695754,2.230578,-8.275854,-5.935737,-7.43082,-11.081808
5.763582,1.515584,2.877185,-9.530011,-4.043053,-3.788211,-12.66952
5.796893,1.652956,3.02174,-9.43409,-2.76615,-2.417332,-12.017675
5.830215,1.619735,2.780067,-8.875772,-2.46417,-0.131087,-12.779807
5.86356,1.807537,2.810145,-9.195559,-2.143635,1.94461,-12.612955
5.896891,1.868741,3.153426,-9.012695,-3.146842,3.200264,-12.742097
5.930216,1.941617,2.976099,-8.634997,-3.749603,3.782674,-11.951982
5.963605,2.165184,2.909508,-8.918121,-3.8138,5.08367,-12.442961
5.996897,2.236115,3.230043,-8.948199,-4.916369,10.672984,-16.548116
6.030253,2.207533,2.92103,-9.079137,-1.176792,10.806465,-9.776772
6.063661,2.641946,3.759779,-9.01509,0.893967,16.568168,-0.279533
6.09688,2.424066,3.404078,-9.238507,1.746184,19.623877,4.843344
6.130226,2.056094,3.039548,-9.004166,-0.576425,15.56975,15.671507
6.163527,2.02407,2.725148,-8.243531,-7.360937,-5.970305,-27.531758
6.196869,2.500234,2.98807,-8.579629,1.637393,14.370362,-19.200836
6.231057,2.216362,0.984052,-8.770872,-11.0435,4.309418,-10.473959
6.263537,2.105925,2.345354,-12.177644,-2.233271,8.621379,-13.992962
6.296892,11.717791,-17.092966,-38.685545,-1.406045,4.729465,-10.573621
6.330231,8.053634,0.395806,-16.024665,-0.878404,4.282931,-9.730084
6.363508,2.398627,-2.371691,-6.611375,-0.920903,3.104044,-8.914979
6.396889,3.152079,-0.266215,-10.30576,-2.111761,3.847919,-9.34191
6.43023,3.093269,1.885651,-11.092732,-1.985313,3.090127,-8.802597
6.463566,1.93189,3.60834,-11.593737,-2.160246,2.593163,-8.331072
6.497195,1.517828,4.496172,-9.845159,-2.114754,3.542198,-8.835817
6.530492,4.197934,5.105668,-12.427398,-1.556885,4.510987,-10.029819
6.563818,6.490164,6.028665,-9.321259,-1.780751,3.391657,-8.902708
6.597123,2.365855,7.006582,-13.898089,-1.608662,3.822928,-9.024368
6.630503,0.911625,6.589378,-7.756293,-1.334067,3.716233,-9.118643
6.663619,2.921629,13.116354,-8.216296,-1.639937,3.619115,-8.970646
6.696837,0.822887,12.384899,-8.000062,-1.495831,3.591281,-8.912435
6.730136,-1.629013,12.895481,2.723801,-1.443157,4.080464,-9.092156
6.763532,-3.788062,20.568722,15.58232,-2.058638,3.724314,-8.908544
6.796818,-18.245067,5.692567,-28.49905,-2.069562,3.409315,-8.953138
6.83019,2.639402,9.742205,-16.874337,-1.873829,1.883705,-10.035056
6.863531,3.542049,7.756144,-14.809265,-1.971695,2.605583,-10.517206
6.897119,1.470841,2.750886,-9.074648,2.325451,0.291355,-11.699235
6.930478,1.379858,3.532621,-9.849648,-9.073151,6.941487,-12.16672
6.963803,2.073902,3.346914,-9.374083,-7.860594,-14.73594,-17.346012
6.997153,1.877869,2.668732,-8.584866,-5.741201,-6.217365,-18.794406
7.030489,1.526807,2.775278,-9.177003,-0.017059,-5.355721,-13.639356
7.063816,1.917674,2.99226,-9.207381,-0.728013,-1.21121,-13.470708
7.097154,1.880114,2.856983,-9.01509,-1.377912,-0.271452,-11.73081
7.130493,1.926653,3.022937,-9.335924,-3.215378,1.585467,-12.244235
7.163829,1.886698,3.498353,-9.27053,-4.150497,3.965688,-13.025221
7.196987,1.619586,3.051669,-8.722538,-5.438923,5.747486,-14.039651
7.230446,1.627517,2.913997,-9.033196,-5.520628,6.379279,-12.391334
7.263817,1.970049,2.586429,-9.113106,-3.792551,10.169585,-13.60404
7.297159,2.083628,3.553721,-9.560089,-1.980225,14.007328,-11.151392
7.330485,2.192419,3.122001,-9.011947,0.738189,19.752121,1.800354
7.363801,2.118346,2.937341,-8.885499,0.846979,20.325403,8.582472
7.397115,2.459232,3.173179,-9.162338,3.982597,9.634462,8.792571
7.430395,1.435226,3.778484,-8.799604,-14.996917,12.793125,-12.94217
7.463717,2.590619,2.552909,-8.860808,-5.875431,5.348538,-10.212682
7.497009,2.951109,2.90442,-10.400334,-2.235516,6.167235,-12.116889
7.530501,3.774594,3.262665,-12.833678,-3.267903,6.658064,-11.570692
7.563837,11.20676,5.501773,-23.003862,-1.268224,4.147205,-10.006624
7.597153,2.356278,-2.075548,-12.406747,0.347172,3.34856,-9.575353
7.630488,-0.442045,-2.490059,-6.137157,-1.468147,3.532621,-9.21202
7.663832,3.928876,-0.413763,-9.900826,-3.267304,2.970113,-8.57065
7.697153,4.555281,1.361302,-11.477015,-2.190623,2.789793,-8.33601
7.730482,1.702787,3.32761,-10.030267,-1.191607,3.280323,-8.94356
7.763782,2.295672,4.109345,-11.344133,-2.015092,3.707703,-9.175357
7.797149,3.603552,4.679934,-12.859118,-1.942964,3.390909,-9.125227
7.830491,3.727307,5.899823,-11.012524,-1.691265,3.673285,-9.18254
7.863721,2.433494,5.341505,-9.881073,-2.040831,3.832506,-8.949247
7.89715,3.455256,7.499506,-17.778181,-1.580828,3.550129,-8.89358
7.93049,3.398242,12.721297,-13.8095,-1.281692,3.635725,-9.032448
7.963769,0.233293,11.96964,-4.716596,-1.645324,3.315339,-8.889689
7.997142,-2.135554,15.245773,0.140814,-1.602975,4.131193,-9.064023
8.03047,-5.554297,19.513291,10.349755,-1.712065,3.95656,-9.085572
8.063774,-11.842144,1.448095,-3.881139,-1.666573,3.547286,-9.210972
8.097123,0.312305,14.348664,-15.598182,-1.857368,3.860189,-10.000937
8.131067,7.230298,4.72752,-11.650452,-2.944524,2.662896,-9.432594
8.164724,2.832591,6.980095,-14.565347,0.353457,0.992881,-11.272454
8.19708,0.250353,5.915685,-12.793724,-5.269377,7.03666,-12.143076
8.231056,2.43514,3.887424,-9.90337,-5.091452,-6.00562,-15.476223
8.264363,2.27143,3.003484,-9.296119,-10.290197,8.384045,-25.085695
8.297732,1.924408,2.977146,-9.247336,-5.828443,-6.141496,-10.693335
8.331081,2.140642,3.016652,-9.07375,-4.651352,-2.167129,-11.251952
8.363776,1.810081,2.65706,-9.016436,-3.118709,-0.491278,-11.215739
8.396989,2.123284,3.156568,-9.24135,-2.456389,1.928149,-12.563423
8.430354,2.494548,3.262964,-9.056391,-2.858629,4.691755,-13.955851
8.463823,2.496344,3.043588,-9.098441,-4.086599,5.406001,-12.708876
8.497008,2.169224,2.949163,-9.271578,-5.508955,7.430221,-14.739232
8.530341,2.389199,3.321774,-9.16563,-6.064131,6.916048,-10.896999
8.564272,2.27158,3.32761,-9.268884,-0.570439,15.667916,-13.588178
8.597141,2.409102,2.984629,-8.961817,-3.993072,13.613917,-6.524283
8.630302,2.786501,3.758133,-9.194212,0.810765,19.683734,2.997199
8.663677,2.357475,3.077856,-8.83058,0.32278,18.456662,18.155131
8.697023,2.090213,2.176856,-7.822286,1.183526,-6.853647,-20.821619
8.730307,2.030655,3.689148,-8.824594,1.807238,26.491141,-26.207568
8.763682,1.456325,1.196994,-8.135788,-10.675229,4.678138,-10.293489
8.797004,7.289108,5.835027,-13.776429,-4.036319,7.632838,-12.28823
8.830371,1.685578,2.252126,-12.140981,-0.346573,5.254114,-11.243872
8.863841,8.404397,3.72566,-21.516411,0.054171,4.382144,-9.722302
8.897713,5.643335,0.420347,-11.24058,-0.428128,2.785005,-8.915727
8.930234,1.991299,-1.339604,-8.206419,-2.399525,3.601756,-8.883105
8.96386,3.494163,0.233892,-9.423914,-2.601393,3.59577,-8.873527
8.996804,4.441403,2.157702,-10.439391,-1.269122,3.761874,-9.149918
9.031035,3.469472,3.553721,-11.805182,-1.708623,3.687053,-8.990399
9.06447,2.653469,4.439158,-11.691903,-2.093954,2.980738,-8.609108
9.096984,4.506797,6.063682,-13.019086,-1.565714,3.583949,-9.046066
9.130158,4.460407,7.115971,-10.646048,-1.906152,3.757834,-8.975883
9.163604,3.536811,9.381116,-16.282799,-1.557035,3.589635,-9.024816
9.197198,2.080636,15.169754,-13.524281,-1.380007,3.310701,-8.904653
9.23018,-0.219825,16.406104,-1.770276,-1.702189,3.438945,-9.041128
9.264447,-3.772798,21.535715,2.717666,-1.511094,3.900443,-9.166828
9.297722,-4.902602,22.396461,17.015002,-1.956582,3.501196,-8.947152
9.331041,-17.329102,-1.987707,-25.497362,-1.80634,3.633181,-9.201246
9.363831,5.086813,16.874337,-23.128066,-2.000726,2.134657,-9.757768
9.397175,9.020178,4.502307,-12.840263,-1.811129,3.372054,-10.154321
9.43048,0.315597,4.530291,-12.722943,3.028474,1.450788,-12.080077
9.46381,1.439715,4.508742,-11.68876,-6.657016,4.630252,-12.018274
9.497136,1.884154,3.015754,-8.946853,-5.157594,-9.434389,-12.488901
9.530487,2.305549,2.672922,-8.845694,-9.568619,-2.254072,-18.802636
9.563815,1.863055,3.31085,-9.968465,-5.675209,-5.455533,-11.576229
9.597149,2.272478,2.545875,-9.011648,-3.97751,-3.814548,-10.63692
9.630414,1.629462,2.85429,-9.049657,-3.39046,-0.978815,-11.087644
9.66373,2.075099,2.832292,-9.465515,-3.477702,1.943862,-12.876626
9.697149,2.326948,2.751934,-8.899565,-3.828316,3.852408,-12.84146
9.730494,2.470156,3.506134,-9.190471,-5.554447,5.26399,-12.322199
9.763818,2.102334,2.716917,-9.128968,-5.722945,7.146049,-14.314994
9.797119,2.195412,2.611269,-8.673904,-3.641711,10.161504,-12.836671
9.830497,2.453995,3.328209,-9.06537,1.984565,11.633392,-11.003545
9.863823,2.663345,3.408417,-9.392938,-0.637329,13.927119,-2.701055
9.897165,2.446213,3.008871,-8.873976,3.479947,19.522718,4.165012
9.930463,2.634165,3.170036,-9.004016,-0.48215,14.44219,11.142264
9.963821,1.947453,2.072256,-8.704431,-7.3132,-4.373914,-26.778306
9.997139,2.182842,3.386121,-8.78853,2.202445,19.118233,-24.696623
10.030579,1.612552,2.329342,-7.974922,-8.214799,4.971588,-9.82376
10.063821,12.572551,16.151861,-18.509037,0.309911,7.611738,-13.361319
10.09716,3.709948,3.990528,-11.174587,-1.00156,3.907776,-9.952603
10.130481,9.599595,-10.457648,-31.789848,-0.325174,3.835049,-9.307342
10.16382,5.100729,-0.648403,-10.562847,-0.760785,3.398391,-9.060282
10.197158,0.744174,-2.870451,-6.396637,-2.068066,3.264162,-8.853176
10.230481,3.96883,-1.279447,-10.314589,-2.458933,3.117362,-8.588308
10.263816,6.147781,0.777395,-11.432871,-1.107657,3.31504,-8.895076
10.297158,4.491084,1.95703,-11.318544,-1.850485,3.537709,-8.966306
10.330478,3.73823,3.361579,-12.110903,-1.740198,3.440142,-8.927848
10.363816,4.687865,5.85897,-14.378891,-1.442259,3.703064,-9.088564
10.397149,4.041706,7.913418,-14.476758,-1.503014,3.646499,-8.972292
10.430499,3.649193,9.775276,-15.688118,-1.638441,3.873807,-9.014641
10.463477,-0.03352,14.994074,-13.571568,-1.668519,3.644853,-8.865147
10.49715,0.548741,16.9737,-4.254499,-1.656098,3.230791,-8.831478
10.53049,-2.192419,17.386715,3.991277,-1.528154,4.017763,-9.100386
10.563828,-2.781563,17.44298,11.811467,-1.772521,4.133437,-9.036938
10.597145,-7.450722,4.133138,-2.737718,-1.501517,3.577215,-9.243894
10.630205,-10.14654,15.094783,-17.234378,-2.165034,3.111975,-9.857879
10.664023,12.327436,7.340585,-16.273371,-3.166744,1.533691,-9.140341
10.697151,-0.763329,7.95053,-16.957838,1.637543,1.091496,-11.129245
10.730444,-0.041451,4.282033,-10.870812,-15.550895,16.179246,-14.462542
10.763815,1.718051,3.668048,-9.034543,-7.412414,1.006498,-10.010365
10.797149,1.920967,3.404377,-9.757768,-7.029178,-5.958333,-16.316917
10.830514,1.745735,3.099255,-9.365703,-6.464875,-1.115289,-16.497387
10.863813,1.803048,3.147889,-8.756357,-3.160459,-2.251228,-10.02503
10.897151,1.783295,3.475009,-9.243146,-2.121488,-2.114305,-7.905038
10.930439,1.875924,3.311,-8.944009,-2.704198,1.814121,-11.660328
10.963716,2.091859,3.369361,-9.177153,-3.395698,3.740924,-12.389538
10.997096,1.891188,3.264162,-8.740944,-4.426289,4.679335,-11.936868
11.03044,1.93219,3.254734,-8.902558,-5.714714,7.499356,-13.929514
11.06379,1.974539,3.459446,-9.224141,-6.874298,10.936206,-16.861917
11.097142,2.077343,3.470968,-8.692759,-6.15242,12.282693,-14.582107
11.130434,2.314378,3.431462,-9.124778,0.643764,15.05438,-8.477722
11.163812,2.456539,3.854503,-9.401019,1.852879,22.105555,1.97409
11.197072,2.37214,3.290798,-8.924256,0.03352,20.137002,13.325555
11.230384,2.319466,2.604236,-8.349179,5.866901,-11.502006,-22.316552
11.263828,2.352836,3.568236,-8.443903,4.938666,28.009419,-25.76657
11.297143,1.664179,2.311235,-8.196543,-8.157935,5.504466,-8.924705
11.330094,11.322135,11.046642,-16.466411,-4.552887,9.514598,-13.987725
11.363593,1.341699,4.301487,-8.765336,0.178973,4.206763,-9.967567
11.397144,12.704088,-15.327029,-36.179475,-0.287464,4.104257,-9.494396
11.430485,6.457841,-0.971632,-16.206032,-1.608362,3.555067,-8.997881
11.463822,-3.519452,-2.721257,-3.948628,-3.09312,2.907263,-8.314012
11.497074,-4.115929,-0.05013,-11.392766,-2.027512,3.290199,-8.57499
11.530406,2.292081,4.47193,-15.998178,-1.092842,3.99846,-9.242397
11.564251,1.711317,3.981999,-9.915641,-1.549253,3.709948,-8.966007
11.597699,3.374149,5.484713,-11.939263,-1.696951,3.475457,-8.790476
11.630235,4.405937,8.004401,-16.01404,-1.593248,3.792551,-8.900613
11.663727,4.556179,10.418292,-12.067806,-1.586515,3.8976,-8.965408
11.697701,1.752917,11.291309,-6.855293,-1.728376,3.657274,-8.75097
11.731066,1.480567,17.54803,-12.193656,-1.674205,3.615523,-8.838361
11.764389,-0.068387,18.120713,-1.835071,-1.506456,3.98589,-8.973489
11.797712,-0.161465,16.585526,7.603508,-1.664179,4.118324,-9.00656
11.830413,-2.37214,22.913178,18.696988,-1.620932,3.96913,-9.079287
11.864392,-18.429127,-1.815917,-30.411637,-1.567959,3.677176,-9.275618
11.897536,10.379384,11.370619,-24.37923,-3.081747,2.385608,-9.534201
11.931148,1.816366,9.387401,-15.064406,-1.962268,0.370217,-9.822114
11.964377,3.038799,3.071272,-9.700305,-1.324041,4.004894,-11.537022
11.997726,1.161977,3.279425,-10.071719,-9.811938,0.273398,-15.280341
12.030081,1.677647,3.172131,-8.861107,-10.145792,8.951641,-21.851911
12.064175,1.540873,2.957394,-8.503161,-4.929837,-5.935737,-10.787161
12.097799,2.075548,3.243361,-9.449204,-3.803774,-3.361878,-10.957305
12.130296,2.045918,3.719226,-9.511755,-4.184017,-2.417183,-10.364121
12.163561,1.869938,3.290199,-9.093054,-3.87665,-0.681025,-10.816043
12.197726,1.966009,3.019795,-9.028558,-3.461092,1.928149,-12.992898
12.230412,2.034246,3.169438,-8.93548,-3.087583,2.907114,-12.259798
12.264378,2.155457,3.634229,-9.327245,-3.102697,3.745563,-12.576143
12.297736,1.878767,2.933451,-8.610605,-2.701803,5.362904,-14.119111
12.331055,2.045769,3.018747,-8.968551,-5.798066,6.552565,-10.566438
12.364393,2.159198,3.63782,-9.046215,-0.502501,11.742632,-12.403904
12.397727,2.329941,3.5416,-9.233868,-1.611206,13.986827,-5.818567
12.430249,2.300162,3.340031,-9.047413,1.5925,18.064897,5.487557
12.464391,2.447111,3.400337,-9.107719,-0.690901,20.826108,15.051686
12.497726,2.140493,2.725297,-8.600429,0.859399,-11.158875,-27.657758
12.530417,2.395784,3.266257,-9.038434,0.919406,11.505747,-18.790964
12.563725,1.860211,1.796613,-8.251911,-10.534863,9.034244,-13.695771
12.597727,5.599489,3.673435,-14.000893,0.732353,6.711636,-12.205926
12.630237,1.545363,-23.558888,-32.24611,0.283424,2.694022,-9.177003
12.664365,5.091901,1.91528,-15.139527,-0.1884,4.157829,-9.202143
12.697001,1.07294,-2.154858,-6.663002,-1.141327,3.177668,-8.873079
12.731144,5.027853,-1.577087,-10.506731,-2.097396,3.1434,-8.743637
12.763466,6.603444,0.201569,-12.747035,-1.891487,3.499251,-8.846592
12.797716,4.862498,1.867394,-10.239468,-1.118282,3.2061,-8.976482
12.831079,4.196736,2.807601,-11.602716,-1.257899,3.686454,-9.180595
12.864377,2.602889,4.408631,-11.884344,-1.351874,3.722967,-9.206483
12.897727,2.001774,5.286436,-11.246865,-1.602227,3.255632,-8.973938
12.930346,2.764953,6.255674,-16.61755,-1.431484,3.702765,-9.16144
12.96359,1.22782,9.511605,-14.61413,-1.337509,3.458548,-8.986807
12.997735,3.690494,16.281452,-11.289662,-1.757257,2.976997,-8.773117
13.03025,-1.111997,16.558441,-1.080721,-1.502864,3.688998,-9.143334
13.064379,-3.191136,16.803855,9.088564,-1.67645,3.73823,-9.177303
13.097823,-5.958932,25.710604,29.687664,-1.986211,3.69648,-9.125077
13.130197,-21.657375,8.753963,-26.917923,-1.725084,3.236627,-9.793383
13.163664,7.300182,2.97969,-9.84052,-1.389884,1.66388,-10.17153
13.196989,3.440142,9.018382,-17.131274,0.608299,1.731668,-12.168815
13.230498,3.388665,3.851809,-10.05451,-1.514087,2.652721,-11.837056
13.264398,1.026102,3.174825,-9.818373,-12.492642,2.257513,-12.211613
13.296908,1.091047,3.379686,-10.393152,-6.271087,-4.55977,-7.524646
13.331061,2.019432,2.784706,-8.799005,-11.410275,-1.869489,-11.465044
13.364395,2.090512,3.362178,-9.21187,-4.954379,-3.766363,-8.889839
13.39772,2.001923,3.233934,-9.258858,-1.798708,-2.674718,-9.322157
13.430182,2.083928,2.793535,-8.762642,-0.89262,-1.833276,-8.990548
13.464389,2.160994,3.047628,-9.004914,-1.640536,-1.534888,-9.325748
13.496799,2.404164,3.567787,-9.252872,-3.215827,-0.040853,-10.922139
13.531041,2.193766,2.736221,-8.693806,-3.762323,0.690004,-10.977358
13.563408,1.99893,2.7452,-9.122533,-3.817541,0.862392,-10.349456
13.597753,2.357026,3.842681,-9.498885,-5.06706,6.127879,-16.858026
13.631105,2.21726,3.190238,-8.890138,-5.721748,6.919939,-12.450892
13.663617,2.358822,3.156568,-9.263347,-2.644939,16.493646,-16.832437
13.697993,2.500085,3.523792,-9.194961,-1.942066,17.842377,-3.169438
13.730804,2.489759,3.234383,-9.095298,3.790905,18.902298,8.117382
13.764445,2.339518,2.550963,-8.630208,0.220424,20.329294,11.754154
13.797674,2.128671,3.12245,-8.525308,-7.762578,4.277544,-10.996362
13.830479,1.615096,2.44352,-7.619819,0.435611,7.841889,-13.680957
13.864393,0.520009,3.230941,-9.136151,-11.519215,10.642606,-12.56043
13.897859,3.054661,3.40333,-10.422332,-2.717965,7.298835,-11.24462
13.931059,4.353862,-8.511092,-20.476542,-0.375305,4.483602,-10.576763
13.96385,10.23857,3.152827,-20.104979,-0.661123,3.601606,-9.403114
13.99773,2.529265,-3.34048,-6.459787,-0.859549,2.401021,-8.794516
14.03106,5.111055,-1.239941,-9.426608,-1.892235,3.57482,-9.216808
14.063501,7.302576,-0.341784,-10.786563,-2.276219,2.445166,-8.437019
14.097718,6.632924,1.675552,-11.228758,-0.961306,3.313394,-8.954634
14.131057,4.416263,2.804458,-10.394798,-1.394223,3.37804,-9.150965
14.164494,4.713454,4.039761,-12.835474,-2.271131,2.660801,-8.552094
14.197725,5.209221,7.158021,-13.335581,-1.578434,3.001389,-8.807385
14.230243,2.937192,8.066952,-13.580546,-1.679592,3.355294,-9.008206
14.263465,2.880178,8.81786,-15.718196,-1.94895,2.997648,-8.563617
14.296819,2.399674,17.662656,-19.309627,-2.408054,3.4156,-8.80529
14.330097,-4.864443,16.6174,4.956174,-1.598935,3.596668,-9.057139
14.363482,-4.267817,17.313539,5.737161,-1.277352,3.684359,-9.138695
14.396752,-5.482469,22.567503,20.869355,-1.748129,3.291397,-9.03604
14.430081,-4.995979,16.217405,-16.31572,-1.703086,3.872909,-9.463719
14.463488,8.013529,11.427484,-25.640271,-1.851831,0.566698,-9.634911
14.496823,2.3678,6.182648,-12.092048,-2.854888,1.469643,-9.743552
14.530152,1.413677,3.59607,-8.977829,4.377505,3.05526,-12.860614
14.563455,1.352174,3.34452,-10.172578,-12.049998,4.464148,-16.928358
14.596826,1.926653,3.151331,-9.098291,-7.012717,4.109644,-22.846737
14.630155,1.485655,2.743404,-8.518125,-5.587219,-5.818417,-14.514917
14.663464,1.992047,3.264162,-9.399223,-4.287121,-3.674782,-10.367263
14.696814,1.866496,2.89619,-9.009254,-4.162618,-1.541472,-11.252551
14.730152,1.957928,3.048077,-9.261851,-3.23962,0.150391,-11.720784
14.764381,1.986061,3.403629,-9.089911,-3.237824,2.432745,-12.610411
14.796825,2.007011,3.353947,-9.094849,-4.710311,4.697142,-13.16394
14.830233,2.065222,2.850698,-8.955233,-5.673114,5.589164,-13.133114
14.863485,2.253772,3.911816,-9.233568,-5.94696,5.939927,-12.214905
14.896821,2.223694,3.271344,-8.814568,-0.208602,17.756782,-14.407324
14.930131,2.333083,3.659967,-9.297765,-1.658942,14.559511,-9.799219
14.96349,2.408054,3.583949,-9.167127,1.718649,17.871109,4.0444
14.996838,2.210526,2.859677,-8.632902,-0.482748,24.084733,15.493731
15.030148,2.524327,3.360232,-8.856618,-0.466736,-7.517463,-28.47825
15.063491,1.92366,2.608127,-7.878103,2.407605,16.736067,-23.263493
15.096813,-0.086194,-0.065693,-7.364678,-7.516266,2.320962,-10.071569
15.130154,2.706891,3.949975,-9.947365,-3.748257,4.517571,-10.396593
15.16349,-1.062016,-15.156736,-29.325828,2.579844,5.274016,-11.811019
15.196815,10.691091,3.245007,-30.399366,0.594681,5.644682,-10.803473
15.230151,2.072256,-2.361216,-6.19028,-1.464406,3.270147,-8.76773
15.263487,2.813886,-2.303753,-8.568705,-2.71153,3.602205,-8.726578
15.2969,5.615052,-0.489632,-12.645577,-1.981871,3.330304,-8.632453
15.330149,4.29984,2.817477,-14.074967,-1.400209,3.317883,-8.756207
15.363487,2.83334,3.129034,-10.321772,-1.795266,3.777886,-9.099339
15.396939,6.110969,4.980417,-14.208598,-1.944012,4.133886,-9.134804
15.430154,6.98234,6.344262,-14.548138,-1.322544,3.324617,-8.891185
15.463513,5.660095,10.52364,-16.054444,-1.048997,3.751998,-9.061329
15.497152,6.37479,16.095895,-14.563401,-1.18592,3.839688,-9.008206
15.5305,-1.054833,17.221659,-6.096005,-1.339604,3.556265,-8.861706
15.563817,-3.158663,18.536122,3.4575,-1.105562,3.986189,-9.049657
15.59715,-4.152442,19.745536,8.136985,-0.93033,4.222325,-9.302105
15.630454,-5.329384,12.83712,18.631594,-1.591602,3.926332,-9.023021
15.663811,-0.07961,19.63091,-15.625268,-1.367437,1.968553,-9.984626
15.697151,14.481098,7.272797,-17.624048,-2.21292,3.273589,-10.358883
15.730461,-2.143486,5.629867,-12.639143,-1.799756,0.823934,-9.559491
15.763817,1.144918,4.41312,-10.396893,-4.270959,6.076252,-11.551687
15.797153,1.494933,2.327247,-8.198488,-6.956452,-2.767946,-11.67619
15.830477,1.946107,2.57341,-9.11984,-11.114281,5.474089,-22.002302
15.863813,1.682885,2.848603,-8.870984,-2.800119,-4.953182,-12.13739
15.89715,1.953888,3.141454,-9.27068,-2.358223,-2.065372,-12.864654
15.930457,1.870686,3.074564,-9.281753,-2.899182,-0.629997,-11.542409
15.963615,1.627966,2.591965,-8.591899,-4.28323,1.451836,-11.47073
15.996903,2.110115,3.198319,-9.230426,-3.316387,2.366603,-12.153102
16.030222,2.042177,3.056457,-8.863202,-2.997797,3.727606,-12.852084
16.063574,2.044422,3.242314,-9.144531,-3.860638,4.020158,-11.101412
16.097028,2.05355,3.673585,-9.177452,-3.899246,3.168091,-9.614709
16.130245,2.124182,3.293192,-8.963313,-4.293705,11.287567,-17.735383
16.163689,2.28415,3.481593,-9.120438,-3.004232,12.455231,-13.398431
16.196901,2.303005,3.657124,-9.184934,1.632156,15.422651,-1.221236
16.230486,2.076894,3.029372,-8.689467,1.587861,19.11539,3.287656
16.263783,2.3051,3.322373,-8.908394,-0.286117,16.125075,15.002903
16.297725,2.536747,3.812154,-8.592947,-4.96216,-2.20454,-23.60408
16.330581,1.955534,3.296185,-8.158384,3.593226,23.28549,-28.69598
16.363768,4.627259,7.808818,-13.487169,-10.404375,5.903115,-10.659666
16.397151,2.35972,4.605112,-10.208941,-4.230107,7.51881,-11.455168
16.430482,1.640835,0.470627,-16.084671,1.444803,5.487557,-11.64267
16.463397,11.524602,2.43933,-26.837415,0.378148,4.875517,-10.076208
16.496866,5.687031,-0.528689,-7.878103,-1.920218,3.5205,-8.875024
16.53014,2.508614,-2.949163,-6.72645,-2.218756,3.033562,-8.628113
16.564488,6.728545,0.310359,-13.800073,-1.763392,3.272991,-8.686025
16.596903,5.54472,2.001774,-11.252102,-1.746483,3.780729,-9.026762
16.630156,4.32498,3.976911,-11.679931,-1.448095,3.603701,-9.035441
16.664366,4.074179,6.352343,-12.757061,-1.698148,3.686454,-9.06926
16.696961,5.948606,8.036574,-13.821322,-1.538928,3.847919,-9.167277
16.730135,4.566803,8.796461,-14.592432,-1.495382,3.738829,-9.014641
16.763779,1.703685,13.462478,-14.782778,-1.917076,3.490422,-8.857366
16.796911,1.441959,20.740363,-8.705329,-1.993693,3.050023,-8.644873
16.83013,-2.850997,15.962413,5.30574,-1.396019,3.797489,-9.134954
16.864462,-0.563256,21.716783,13.182945,-1.554341,4.294902,-9.245091
16.897759,-10.409612,3.123647,-2.481978,-1.94461,3.597117,-9.077491
16.930127,-4.624865,17.048372,-14.360934,-2.888707,0.958164,-9.516394
16.963819,11.397705,6.331393,-10.671787,-2.549317,3.262216,-10.133222
16.997048,3.027875,3.980502,-11.805332,1.561973,3.303069,-12.275061
17.030475,1.158087,4.054725,-9.915491,-16.620692,14.332801,-14.949181
17.063822,2.048762,3.342126,-9.012097,-8.802896,-11.337997,-20.83359
17.097125,1.551498,2.447859,-8.343193,-6.710139,-5.979732,-17.830705
17.130481,1.700542,3.288553,-9.339516,-4.799798,-5.519879,-11.067592
17.163824,1.821155,3.52065,-9.419275,-2.447859,-2.656761,-11.547946
17.197142,1.731219,3.234083,-8.999826,-1.950446,-0.821839,-10.916303
17.230431,1.794518,3.467826,-9.255566,-2.629676,1.613151,-11.890928
17.263816,1.842703,3.159412,-8.913332,-5.073195,5.188271,-14.662614
17.297092,1.776112,2.990614,-8.613298,-5.782652,5.674161,-13.692479
17.330439,1.791974,3.528132,-9.240153,-4.825835,5.193658,-10.467674
17.36352,2.002821,3.684359,-9.167725,-3.34452,12.671316,-18.30672
17.397244,2.067317,3.62525,-8.932636,-4.744579,12.034585,-13.133413
17.430487,2.119243,3.965089,-9.271428,1.626619,16.042921,-4.34593
17.464383,2.01584,3.665803,-8.96885,4.442899,17.729846,5.53619
17.497149,1.962118,3.495659,-8.782694,3.397493,19.674456,19.01064
17.530481,1.953738,3.529628,-8.425646,-8.707573,-3.849565,-28.269199
17.563829,1.560477,2.212022,-7.731901,0.892471,21.675482,-26.960122
17.597149,10.401083,18.134181,-17.096856,-11.20676,9.465515,-13.785258
17.630492,1.905404,4.456217,-10.151778,0.933323,6.252382,-11.775553
17.663846,4.586706,-6.987877,-21.603952,-0.276989,4.692952,-10.366066
17.696961,14.07377,6.837635,-22.130246,-0.970883,3.473362,-8.96481
17.730264,3.409465,-2.891251,-8.141325,-1.417119,2.588673,-8.623624
17.763615,1.121873,-1.400508,-8.546408,-2.600196,3.262216,-8.539375
17.79686,3.249048,0.685365,-11.377653,-1.162576,3.453759,-8.936527
17.830285,3.740475,3.719824,-13.925623,-1.98217,3.533669,-8.846442
17.863703,2.358522,4.536426,-11.225466,-1.621681,3.363375,-8.83477
17.896953,3.276133,5.974944,-12.485459,-1.359805,3.946683,-9.077042
17.930399,6.512461,9.304798,-15.768925,-1.38315,3.783273,-9.05684
17.963815,2.915793,9.260654,-11.327971,-1.547757,3.697827,-8.831627
17.997166,1.772371,11.147801,-12.944713,-1.439864,4.031231,-8.854822
18.030485,-0.073924,16.984624,-5.036832,-1.473983,3.611483,-8.831029
18.063813,-1.087306,17.404971,1.569904,-1.580678,3.921992,-8.928596
18.096998,-2.571165,18.961856,7.512675,-1.654153,4.231903,-9.078987
18.130476,-7.622961,6.11067,-0.908033,-1.429838,3.858992,-9.447707
18.163541,-6.000084,12.785643,-16.640595,-2.232673,3.034011,-10.08384
18.197716,13.164838,3.974816,-13.674073,-2.412095,2.079438,-9.758067
18.231054,0.255441,5.080378,-13.413096,-0.593933,3.850014,-12.483963
18.264391,1.689619,4.398605,-10.539802,-6.11486,0.395506,-10.969427
18.297734,1.753366,3.399439,-9.247485,-1.241438,-16.536593,-19.954288
18.33106,1.962567,3.349159,-9.724397,-5.884859,-3.686753,-12.541426
18.364385,2.155906,2.760613,-8.63769,-4.822992,-3.384175,-7.904889
18.397726,2.108469,4.060561,-9.719908,-4.655242,-2.190473,-8.81397
18.43104,2.024519,3.03416,-9.012995,-4.687116,0.109838,-11.472526
18.464452,1.9907,3.234233,-9.074049,-3.979754,1.752768,-11.374809
18.497797,2.264696,3.31938,-9.154856,-3.800183,3.145195,-12.013336
18.5307,2.119992,3.082196,-8.770723,-3.194428,4.186561,-12.348087
18.564371,2.131065,3.085189,-8.854523,-4.444246,5.787291,-13.835089
18.597724,2.354183,3.669993,-9.437981,-5.11315,8.698595,-14.933618
18.630955,2.340565,3.507631,-9.161889,-3.942942,9.653018,-10.384173
18.66438,2.314527,3.549381,-9.178949,-1.371627,12.810334,-10.272689
18.697715,2.361216,3.344071,-8.967803,1.289324,15.827435,0.045043
18.730715,2.379921,3.277031,-8.840456,3.513916,18.026289,6.491511
18.764376,2.305998,3.385821,-8.939071,7.301079,0.672795,12.487105
18.797723,1.903009,2.023472,-7.379492,1.234704,27.115601,-16.194809
18.830906,0.435012,-0.533028,-7.323376,-11.790966,10.940097,-12.163278
18.864393,-0.274296,2.053999,-12.417821,-5.179142,6.041235,-9.676063
18.897717,1.428641,4.97877,-8.64622,0.187203,5.544122,-10.93845
18.930475,9.334877,2.18778,-23.636403,-0.136325,4.197335,-9.922973
18.963818,12.926607,5.248876,-24.556856,-0.584954,3.579759,-9.198103
18.997066,3.157317,-4.015668,-8.438964,-2.349993,3.392106,-8.701438
19.030407,1.385993,-1.296806,-7.546195,-2.462524,3.414702,-8.761894
19.06381,2.140044,1.527256,-12.443559,-1.648766,3.637371,-8.924256
19.097158,4.228311,5.242142,-15.613296,-1.405447,3.886527,-9.184186
19.130386,4.340843,7.035164,-13.688589,-1.670315,3.699024,-9.019878
19.164394,5.736562,8.091942,-12.95893,-1.718799,3.529479,-8.958375
19.197783,3.284812,12.768883,-17.428315,-1.34529,3.70501,-9.029755
19.230903,3.918849,14.715438,-10.712789,-1.545662,3.224207,-8.779552
19.264415,1.682585,16.67606,-7.352856,-1.557783,3.922142,-9.104127
19.29694,-1.393325,22.532786,6.565884,-1.58008,3.772349,-8.97319
19.331484,-0.270704,17.755884,12.261444,-1.857817,3.48294,-8.921563
19.364397,-13.203596,17.299772,9.35852,-1.73077,3.729252,-8.995038
19.397154,7.041299,23.463415,-27.892398,-1.814421,3.302919,-9.843064
19.430841,10.36038,7.241372,-16.212018,-2.683248,1.519026,-9.804007
19.463786,-1.949249,6.029863,-13.535205,-0.038907,0.914019,-10.978854
19.497145,2.066569,3.549381,-8.685726,-5.581981,4.373614,-11.299988
19.53052,1.862905,4.58521,-9.701053,-11.107098,0.45267,-19.893533
19.563824,2.323955,4.100366,-10.928574,-3.973768,-3.768309,-13.069067
19.597179,2.39324,4.307323,-9.267986,-5.912842,-2.53555,-8.413675
19.630474,2.359121,4.085851,-8.91453,-2.888857,-1.829385,-8.158234
19.663826,1.962118,3.828465,-9.162638,-2.323057,0.733999,-10.357237
19.697177,1.976484,3.57512,-8.845993,-2.362712,2.071208,-9.75253
19.73044,2.238808,3.752147,-8.909442,-3.278527,3.319081,-10.520198
19.763819,2.236115,3.763819,-8.882656,-4.613791,3.11811,-9.917287
19.797145,2.138398,3.743767,-8.954335,-4.951685,4.218584,-11.950935
19.830399,2.210675,3.829513,-9.007159,-2.657359,5.43174,-11.627706
19.863819,2.18374,3.837144,-8.938772,-2.471653,10.459892,-16.175804
19.897159,2.136752,3.541151,-8.764288,0.691051,7.667854,-9.278312
19.930489,2.158151,3.845375,-8.862753,2.104279,12.751075,-9.941679
19.963822,2.145581,3.777886,-8.953736,3.869018,11.81895,-2.372439
19.997156,2.093355,3.635426,-8.777307,4.521013,14.472119,0.619073
20.030491,2.033049,3.823078,-8.922461,-1.561823,13.085677,11.376455
20.06382,2.099939,3.140856,-8.462458,-4.436764,7.299433,-18.938512
20.097118,2.311535,3.044486,-8.215547,0.278336,16.379019,-23.647626
20.130529,2.047714,2.767497,-8.158683,-8.883554,8.737652,-12.786242
20.163817,10.315786,15.851228,-16.609918,-4.827033,4.820748,-9.66888
20.197104,3.745713,2.884368,-11.376156,0.060007,4.13673,-9.802511
20.230486,9.906812,-7.944394,-23.690274,0.438903,4.965602,-9.789193
20.263825,1.798559,-3.49955,-13.639206,-1.614498,4.259736,-9.001622
20.297145,4.412222,-1.706229,-12.172556,-2.141091,3.955662,-8.948648
20.330485,5.897429,0.471375,-11.584459,0.128244,4.234297,-9.191968
20.364381,6.670634,1.37866,-11.607055,-1.047201,3.744665,-8.86829
20.397726,10.506731,3.669993,-14.052819,-1.68049,3.674034,-8.76758
20.430466,12.731772,8.628562,-4.731411,-1.027149,3.949077,-8.896273
20.463818,8.005598,8.260141,-3.002885,-0.99752,4.097224,-9.012995
20.497151,11.198979,11.218582,-4.046345,-0.921202,3.9814,-8.871283
20.530547,15.62826,19.794769,5.241543,-0.952627,4.257791,-8.823996
20.563814,9.378273,20.042877,11.158875,-1.070546,4.137328,-8.758602
20.597148,8.023256,15.789725,-3.265658,-0.476762,4.559471,-8.879812
20.630405,-5.26803,39.040648,-50.697384,-1.094638,4.036618,-8.948349
20.663821,-5.026507,-9.742953,7.675037,-1.068002,4.272605,-9.012097
20.697153,0.2514,5.5742,-2.169673,-0.822587,4.509341,-8.970047
20.730467,2.735473,3.536362,-13.040934,-1.023408,3.837294,-8.740944
20.763823,2.135554,2.502928,-6.724655,-1.002159,3.788211,-8.779701
20.797159,3.359933,3.206998,-7.85416,-1.327034,3.659518,-8.759948
20.830489,2.431997,3.799584,-9.529113,-1.39961,4.394115,-8.697248
20.863841,1.996985,1.227072,-6.894499,0.097268,5.410939,-8.142222
20.897065,2.423168,3.469472,-8.994888,-2.082581,3.691542,-7.977615
20.93106,2.873294,4.856662,-9.650773,-0.229403,1.598486,-8.200882
20.964388,1.865299,1.994441,-7.559662,-2.180148,3.559856,-8.436869
20.997716,2.763157,4.250458,-9.560389,-2.038436,4.232501,-8.986658
21.031057,2.683547,4.575333,-9.596602,-1.619586,3.441937,-8.6965
21.064374,2.082282,2.650626,-8.039567,-1.205524,4.12835,-8.865297
21.097727,2.36795,3.5205,-9.013294,-1.797062,4.319444,-8.891634
21.130436,2.310188,3.545041,-8.672557,-1.378062,4.12416,-8.849734
21.164465,2.471653,4.146905,-9.264694,-2.219504,3.189639,-8.75531
21.197724,2.22564,3.627644,-8.95194,-1.833276,4.088994,-8.757853
21.231057,2.38052,3.338684,-9.850546,-1.9069,3.956709,-8.771172
21.264395,2.464021,3.065286,-9.348793,-1.824896,4.041706,-8.808882
21.29781,2.197507,3.417695,-8.838511,-2.030356,3.710995,-8.644574
21.331058,2.281007,3.665953,-9.121037,-1.646222,3.93965,-8.868889
21.364396,2.132562,3.608789,-9.065968,-2.756872,4.079416,-8.418912
21.397717,2.151866,3.57093,-8.942064,-1.943563,3.970027,-8.635745
21.43106,1.999379,3.405574,-8.810378,-2.164136,3.913612,-8.659388
21.464391,1.963016,3.523942,-8.93114,-1.977382,4.131492,-8.712512
21.497808,2.109816,3.579908,-8.959123,-1.914682,4.080165,-8.703383
21.531043,2.070011,3.517058,-8.877269,-1.983966,4.049039,-8.723136
21.564393,2.085574,3.698126,-9.028258,-1.945209,4.005044,-8.719395
21.596941,2.041878,3.47845,-8.837314,-1.953439,4.17444,-8.681536
21.630373,2.141091,3.764867,-9.057888,-1.953738,3.975714,-8.651906
21.664392,2.102783,3.706057,-9.01494,-1.991299,3.954764,-8.671809
21.697726,2.043075,3.632433,-8.871133,-1.964662,4.124609,-8.687222
21.732308,3.425776,2.393689,-8.819207,-1.918722,4.124309,-8.600429
21.76347,1.673008,4.181623,-9.005662,-2.5565,3.924237,-8.646369
21.797192,1.973342,3.214929,-8.748725,-2.170721,4.034523,-8.541021
21.831411,2.083479,3.425626,-8.903905,-2.387104,3.764867,-8.840456
21.863793,2.305998,3.525289,-8.823397,-2.279661,3.836696,-8.994439