time_tick,acc_X_value,acc_Y_value,acc_Z_value,acc_X_value,acc_Y_value,acc_Z_value
0.023813,1.113044,3.000491,-9.231922,0.162662,3.282119,-9.560089
0.057142,1.158835,3.016802,-9.264694,-0.176279,3.283017,-9.328592
0.090474,1.144918,3.003633,-9.305547,-0.296293,3.292444,-9.179697
0.123806,1.162576,3.030569,-9.349691,-0.364979,3.255183,-9.205585
0.157167,1.176194,3.034759,-9.299561,-0.384433,3.272841,-9.190771
0.190495,1.139232,3.048676,-9.372287,-0.310509,3.293342,-9.228181
0.223843,1.125764,3.008871,-9.360017,-0.311706,3.253537,-9.219053
0.257217,1.157488,3.028624,-9.328891,-0.367822,3.259672,-9.190471
0.290454,1.129804,2.971011,-9.281304,-0.332507,3.287656,-9.19945
0.323163,1.127111,2.994355,-9.363608,-0.414062,3.262665,-9.193314
0.357221,1.210013,3.044486,-9.327544,-0.289858,3.276582,-9.211122
0.390477,1.12756,3.011415,-9.317069,-0.311257,3.283615,-9.180295
0.423807,1.195946,3.039248,-9.351337,-0.303775,3.282717,-9.194212
0.457156,1.253709,3.094466,-9.325898,-0.342982,3.174675,-9.170569
0.490541,1.021313,2.929111,-9.322905,-0.348369,3.308905,-9.220699
0.523888,1.167365,3.051519,-9.366302,-0.399547,3.167792,-9.180595
0.557142,1.26568,3.123647,-9.381266,-0.311557,3.316387,-9.220849
0.590508,1.254906,3.019944,-9.325599,-0.375604,3.271644,-9.185982
0.623805,1.249369,3.100452,-9.306295,-0.351062,3.32357,-9.207531
0.657139,1.15689,3.058103,-9.322157,-0.369917,3.233186,-9.226535
0.690471,1.137735,3.075312,-9.340264,-0.357647,3.338833,-9.204388
0.723804,1.198191,3.066932,-9.340413,-0.421544,3.338833,-9.145129
0.757174,1.145217,2.882123,-9.181642,-0.412117,3.322971,-9.19526
0.790528,1.214053,3.07202,-9.34206,-0.447283,3.305313,-9.151863
0.823811,1.121424,3.062892,-9.328292,-0.349865,3.36981,-9.20768
0.857136,1.174099,3.085787,-9.359568,-0.388772,3.339133,-9.190322
0.890551,1.199688,2.986873,-9.289984,-0.366625,3.345867,-9.201545
0.923808,1.140728,3.095664,-9.330537,-0.407627,3.313993,-9.176854
0.957138,1.174996,3.020842,-9.292977,-0.4609,3.320427,-9.175507
0.990457,1.150305,2.994804,-9.273822,-0.548441,3.301423,-9.097094
1.02387,1.128457,3.068878,-9.365254,-0.382787,3.321475,-9.20768
1.057168,1.170806,2.938838,-9.257811,-0.47781,3.211936,-9.194512
1.090555,1.190709,3.108982,-9.35448,-0.358694,3.429667,-9.216659
1.123834,1.228269,3.069326,-9.326646,-0.434563,3.208794,-9.154557
1.157155,1.213305,3.040445,-9.291031,-0.545299,3.218371,-9.10278
1.190485,1.224828,3.076958,-9.337271,-0.421993,3.255033,-9.175507
1.223836,1.215849,3.087733,-9.347147,-0.347321,3.332698,-9.23282
1.257169,1.16497,3.067082,-9.341012,-0.44848,3.237076,-9.134355
1.290474,1.191607,2.97161,-9.296718,-0.43157,3.302171,-9.187029
1.323894,1.218692,3.094616,-9.342957,-0.430223,3.25638,-9.200048
1.357154,1.148959,2.995553,-9.324252,-0.384433,3.317135,-9.22863
1.390478,1.187866,3.055559,-9.335026,-0.358096,3.228996,-9.152013
1.423888,1.112745,3.00498,-9.319613,-0.477062,3.247252,-9.102182
1.457143,1.209265,3.071571,-9.348943,-0.369319,3.291696,-9.239255
1.490937,1.240989,3.082645,-9.349093,-0.395806,3.286309,-9.197205
1.523868,1.170956,3.051519,-9.342957,-0.416905,3.335242,-9.187478
1.55716,1.202381,3.015006,-9.291031,-0.376053,3.205053,-9.204538
1.59071,1.242635,3.122599,-9.346549,-0.445936,3.318033,-9.174609
1.623799,1.14851,3.02578,-9.339067,-0.434713,3.320727,-9.188825
1.657168,1.27421,3.05107,-9.327245,-0.384433,3.158214,-9.178051
1.691082,1.227072,3.086685,-9.336822,-0.46509,3.211787,-9.134954
1.723518,1.145816,3.075163,-9.349093,-0.522254,3.375346,-9.202892
1.757215,1.205673,3.056906,-9.386803,-0.387725,3.30262,-9.150666
1.790445,1.185322,3.052267,-9.389347,-0.269956,3.310701,-9.240302
1.823811,1.116935,2.974303,-9.334278,-0.463743,3.218969,-9.154108
1.85716,1.074885,2.741908,-9.104576,-0.52375,2.981187,-9.087367
1.890515,1.230813,3.077407,-9.317817,-0.293599,3.295587,-9.322007
1.923807,1.205673,3.02997,-9.327245,-0.496815,3.198618,-9.242248
1.957174,1.164521,2.978044,-9.35014,-0.44025,3.317734,-9.251077
1.990476,1.180084,3.000341,-9.386204,-0.526145,3.382529,-9.110712
2.023839,1.204925,3.056607,-9.427506,-0.583757,3.195176,-9.072104
2.057211,1.234405,3.033861,-9.371838,-0.327269,2.843665,-9.261252
2.090477,1.144918,3.011864,-9.370791,-0.585254,3.388964,-9.114752
2.123806,1.129355,3.217174,-9.530759,-0.690004,3.456303,-9.034244
2.157134,1.53818,2.369746,-9.897385,-0.449677,3.30262,-9.194212
2.190478,1.194151,-0.352259,-12.321151,-0.524199,3.423232,-9.14079
2.223831,3.308306,-3.295587,-12.501022,-0.357946,3.529179,-9.121336
2.257143,0.316345,-2.093206,-11.977122,-0.061952,3.256979,-9.385905
2.290507,0.484843,-2.586728,-11.71824,-0.199923,3.124694,-9.197056
2.323874,0.905041,-1.166616,-12.427547,-0.21803,3.369361,-9.20349
2.356283,1.42924,-0.531831,-10.980351,-0.074821,3.270896,-9.292827
2.390538,2.820021,1.297105,-12.075737,-0.257386,3.65024,-9.00237
2.423457,2.624438,1.122621,-10.132773,-0.084099,3.297831,-9.240751
2.457221,2.459531,2.14588,-10.000339,-0.081256,3.245157,-9.284597
2.490477,2.947068,2.653768,-9.09874,-0.103403,3.410213,-9.162189
2.523888,2.028709,2.660352,-8.001109,-0.243619,3.306062,-9.288487
2.557231,1.331074,3.248299,-8.637391,-0.446983,3.343921,-9.222196
2.59052,2.5773,4.697292,-10.395546,-0.206507,3.401384,-9.225039
2.623915,0.951131,4.440654,-8.210908,-0.216234,3.462588,-9.188227
2.657047,0.702574,5.085316,-7.211593,0.021848,3.586343,-9.430199
2.690451,0.985997,7.018404,-7.790262,-0.128843,3.54998,-9.551709
2.723807,1.077429,7.733398,-4.598528,-0.139767,3.842981,-9.3042
2.757165,1.468895,6.329597,-2.547821,0.357048,4.050685,-9.315872
2.790473,0.7964,5.707681,10.448071,-0.065843,4.001303,-9.872693
2.823805,9.039781,17.794043,-31.065427,-0.304972,3.92693,-10.631383
2.857145,-6.32451,3.038201,-10.278375,-0.669802,2.010752,-12.217898
2.890473,1.167514,4.108896,-11.067143,0.756445,6.132817,-13.895844
2.923849,1.22812,3.14744,-9.402066,2.810444,2.307345,-12.936333
2.957169,1.325537,3.226751,-9.323653,-2.253024,3.573025,-9.73562
2.990476,1.183975,3.111825,-9.297466,-6.436891,4.654494,-18.032873
3.023225,1.074736,3.064538,-9.333081,-9.065669,1.174248,-12.029796
3.057223,1.163624,3.121253,-9.417031,-2.400273,-2.115353,-7.088886
3.090548,1.158685,2.881225,-9.135103,0.25155,0.098016,-7.473019
3.123886,1.224229,2.978044,-9.255416,-1.091496,2.66544,-9.534051
3.157137,1.248172,3.082046,-9.325898,-1.212856,3.882786,-10.406919
3.190476,1.308029,3.1223,-9.292378,0.619223,5.910298,-11.546899
3.223785,1.208666,3.060348,-9.321708,1.223032,7.006881,-12.461217
3.257136,1.280345,3.08863,-9.332183,1.558232,10.021439,-11.245368
3.290479,1.242635,2.940484,-9.336523,4.896617,20.623043,-5.292721
3.323804,1.268374,3.054811,-9.332931,9.269483,22.821447,-8.143868
3.357202,1.214951,3.032814,-9.360316,1.063812,22.207462,1.311022
3.390562,1.302043,3.075611,-9.40491,6.643249,12.892338,6.53371
3.423811,1.329278,2.792188,-9.305547,4.146905,18.429576,-19.202482
3.457158,1.351276,2.615609,-9.377076,2.27577,1.467249,-9.229528
3.490454,1.113643,3.107785,-9.293575,0.4609,4.170699,-9.803109
3.523808,0.644811,1.159733,-9.994203,-0.247659,3.724763,-9.453843
3.557156,0.197379,2.356427,-10.134868,-0.437706,3.337038,-9.184934
3.590481,1.956881,4.477167,-11.770465,-0.488285,3.372802,-9.056541
3.623835,-0.581363,0.11732,-13.588328,-0.366625,3.278827,-9.240452
3.657014,2.029308,1.769827,-18.903196,-0.462546,3.172879,-9.057588
3.690107,3.690045,-2.718264,-9.076892,-0.468233,3.08474,-8.892382
3.723294,6.059791,-2.32605,-8.777307,-0.329813,3.360232,-9.254668
3.756412,7.486786,-0.986746,-9.20783,0.1468,3.445379,-9.345202
3.789542,4.484799,1.884154,-8.957328,0.012121,3.413505,-9.224889
3.823898,2.042028,3.362926,-9.727989,0.008081,3.351254,-9.218305
3.857125,1.327034,4.395612,-10.849114,-0.135427,3.060049,-9.323803
3.890472,0.969088,4.600473,-9.67292,0.016161,3.247551,-9.284896
3.923839,1.62617,4.204518,-8.396166,-0.224764,3.16854,-9.137797
3.957119,2.802513,3.860189,-7.494717,-0.056266,3.132925,-9.302404
3.990473,4.310465,7.046237,-12.04521,-0.208153,3.278976,-9.143633
4.023829,2.918636,6.622449,-8.63365,-0.169845,3.328508,-9.226834
4.057167,0.926589,6.804414,-6.162297,-0.110436,3.256081,-9.260654
4.090493,0.651845,8.817262,-6.841975,-0.249156,3.153426,-9.28729
4.123824,1.305186,12.838317,-7.457456,-0.143508,3.275385,-9.411943
4.157123,0.640472,13.469811,-6.484179,-0.048634,3.199067,-9.600493
4.190553,-7.894414,14.946338,17.862579,0.177028,3.642908,-9.813136
4.223816,22.19564,32.558265,-71.286159,-0.035465,3.632283,-10.84657
4.257435,-2.691328,-4.05712,-15.123515,-2.378126,2.582089,-13.380025
4.290446,1.393475,2.674119,-11.088093,-3.59173,-3.346765,-17.503436
4.323806,1.303689,3.208345,-9.835283,-3.962845,-0.377699,-17.4557
4.357227,1.203878,2.877484,-9.154856,-7.60276,0.286866,-26.485006
4.390568,1.314314,2.739663,-9.140939,-4.25405,-5.230021,-8.23964
4.423842,1.455128,2.930907,-9.465066,-1.921715,-10.241863,-7.1875
4.457282,1.586814,2.941681,-9.373634,-0.782932,-1.235003,-7.942449
4.490477,1.471738,2.907712,-9.314974,-0.904143,1.611355,-10.178713
4.523805,1.407392,2.899482,-9.135403,0.936615,2.107422,-12.304691
4.557158,1.477874,2.859078,-9.383211,1.027897,10.391655,-13.053803
4.590341,1.530698,2.933151,-9.501429,0.498461,10.42742,-14.752101
4.623504,1.514985,2.762409,-9.403712,2.076296,29.576779,9.641645
4.657137,1.496729,2.932104,-9.473296,14.421839,35.411806,6.359227
4.690476,1.504959,2.852943,-9.419275,-5.10462,4.311812,-31.114061
4.723822,1.608063,2.896339,-9.603486,-4.965452,-4.233998,-15.27226
4.757181,-0.096819,2.414339,-8.813521,1.757556,3.313244,-9.801463
4.790496,1.385694,3.14759,-9.539738,-1.009491,4.337401,-9.446061
4.823803,0.165355,1.650262,-9.440674,-0.835307,3.232138,-9.194961
4.857272,2.804758,5.017378,-9.565476,-0.554277,3.481892,-9.23716
4.89052,2.17506,3.91017,-10.101348,-0.79625,3.452562,-9.085123
4.923795,0.448929,2.104578,-11.268862,-0.708559,3.268202,-9.194212
4.957138,4.581319,1.431634,-12.631511,-0.744923,3.410812,-9.212469
4.989745,3.484286,-0.413015,-6.961839,-0.746569,3.344071,-9.181792
5.023829,4.459061,-0.086344,-7.410768,-0.731604,3.29005,-9.167725
5.057237,3.891315,2.53121,-9.933149,-0.900402,3.455705,-9.075695
5.090511,2.921479,2.875539,-9.083925,-0.848775,3.458548,-9.091557
5.123809,1.461712,3.275983,-9.67307,-0.788918,3.424429,-9.130315
5.157178,1.347984,3.379836,-10.061244,-0.75839,3.474859,-9.172514
5.190477,1.323143,3.894757,-9.982831,-0.874364,3.108683,-9.047113
5.223805,1.702637,4.076274,-9.804456,-0.837701,3.364422,-9.198253
5.257141,1.872632,4.205865,-9.268884,-0.722775,3.36143,-9.112208
5.290477,2.433194,4.211401,-9.947814,-0.734597,3.201012,-9.192866
5.323803,1.585168,4.244323,-9.173262,-0.964299,3.154024,-9.022572
5.357151,2.380071,4.466692,-9.359119,-0.828872,3.284962,-9.154407
5.39048,1.075634,3.836097,-7.284469,-0.810765,3.248748,-9.206034
5.423805,0.288512,5.674909,-8.6754,-0.82962,3.244708,-9.187478
5.457125,1.618089,11.659879,-4.973533,-0.782633,3.248299,-9.219801
5.489523,-1.238894,21.159213,12.692565,-0.925991,3.181708,-9.203191
5.523828,11.693698,15.205968,-41.86441,-0.845333,3.328358,-9.313777
5.556485,0.997969,-1.286181,-9.214863,-1.121424,3.146093,-9.764651
5.590471,1.95703,3.98993,-10.390009,-2.561438,2.883919,-11.478811
5.62388,1.363247,3.462289,-9.416432,-2.190324,2.585082,-14.128838
5.656623,1.216747,2.940783,-9.162638,1.804694,-1.367737,-17.621504
5.690559,1.124417,2.969215,-8.906,-2.552609,-0.161016,-15.006943
5.72387,1.401855,2.926567,-9.635809,-5.310679,8.037921,-19.840709
5.75702,1.574992,3.191585,-9.443069,-9.16593,-6.108575,-12.199641
5.790525,1.532344,3.049723,-9.335924,-1.640236,-6.583541,-11.263924
5.823986,1.404399,2.9755,-9.417779,-2.700457,-2.410598,-9.314675
5.857141,1.417867,3.024733,-9.438879,-0.366326,1.31611,-10.272839
5.890538,1.468446,3.176172,-9.372138,0.445936,3.048975,-12.726833
5.92381,1.357262,3.068429,-9.285345,0.777245,5.29317,-15.730766
5.957141,1.402903,2.931655,-9.264694,-3.773397,3.984842,-14.288208
5.990451,1.414874,3.178117,-9.070907,16.890499,31.975256,-4.459061
6.023809,1.37043,3.022488,-9.288338,3.426823,38.31877,6.513509
6.056254,1.639189,2.926268,-9.56832,0.481252,-3.26072,-11.478063
6.090472,1.582773,3.037004,-9.770787,2.053101,1.675253,-10.918398
6.123787,1.444952,2.359869,-9.789342,-0.8383,3.81395,-8.825342
6.157144,0.09622,1.241288,-9.546023,-1.454529,2.990016,-8.896572
6.190479,2.207832,3.421436,-9.701203,-0.669652,3.4786,-9.055344
6.223828,3.193829,5.461369,-9.434988,-1.011586,3.53741,-8.912435
6.257175,1.080572,5.537388,-8.304735,-0.618175,3.738081,-9.274421
6.290347,1.168113,4.89497,-11.78094,-0.749861,3.579609,-9.120139
6.323509,3.916455,2.41,-14.986292,-0.791312,3.722368,-9.124778
6.356785,3.821282,-0.779939,-8.22692,-0.648852,3.431163,-9.156053
6.390473,4.029436,-0.036064,-7.883939,-0.849373,3.189639,-8.982318
6.423859,5.617896,2.358971,-10.197568,-0.906238,3.447325,-9.045018
6.45714,3.914061,3.164649,-9.275468,-0.74612,3.775342,-9.133607
6.490478,2.277117,3.276133,-8.45318,-0.147997,3.494761,-9.441572
6.523912,1.590854,4.666166,-10.194126,-0.356898,3.429517,-9.159794
6.557147,1.22363,5.214308,-10.751247,-0.356449,3.437298,-9.176854
6.590446,0.99737,4.583115,-10.042688,-0.298089,3.353349,-9.235065
6.623783,0.521057,4.561117,-9.575802,-0.502651,3.362028,-9.130764
6.657184,1.06471,4.189853,-8.970646,-0.329214,3.40752,-9.213367
6.690556,1.304737,4.732159,-7.87511,-0.383535,3.412907,-9.164134
6.723788,2.694321,6.619905,-8.752317,-0.344777,3.423082,-9.112657
6.757137,2.931505,7.062549,-8.703234,-0.351661,3.291397,-9.237459
6.790454,0.98495,8.03014,-6.428212,-0.127496,3.295736,-9.339516
6.823788,-0.143508,8.211357,-3.551925,-0.614284,3.509426,-9.054895
6.857138,-1.352922,14.904288,-0.348818,-0.522852,3.588139,-9.384109
6.890521,2.600495,37.121926,-40.218637,-0.438753,3.614476,-9.742055
6.923878,0.013767,-8.177688,-11.964103,-0.186754,3.576915,-10.837142
6.956275,0.995874,5.420516,-11.519514,-1.772221,3.162704,-11.992535
6.990469,1.639338,3.718927,-9.848302,-2.700307,-3.88503,-13.007713
7.024151,1.368934,2.994954,-9.04427,2.332335,5.278206,-17.444477
7.057125,1.431036,3.115267,-9.388898,-3.058403,3.022339,-11.467289
7.09047,1.217046,2.984329,-9.310635,-7.903243,11.396208,-23.656455
7.123777,1.146864,2.850848,-9.242846,-15.621975,-8.249666,-14.670546
7.157146,1.218094,2.980588,-9.374233,-1.017123,-5.054939,-9.339665
7.190508,1.322993,3.086535,-9.351337,2.048911,0.202766,-10.103592
7.223804,1.319552,3.013659,-9.374382,-1.881012,2.099939,-10.752594
7.257142,1.302343,3.047179,-9.211122,0.183762,4.889134,-13.094506
7.290496,1.322095,3.049274,-9.294323,-2.053999,5.796719,-13.872949
7.323873,1.267925,2.940484,-9.342808,-4.275598,6.032556,-12.431887
7.357138,1.301894,3.199366,-9.49679,18.173537,31.655918,12.662337
7.390493,1.40814,2.957543,-9.210823,6.014749,51.349977,-7.752702
7.423203,1.532194,2.859677,-9.99974,-0.983453,-3.411111,-5.144575
7.457139,1.115289,3.037453,-10.036702,-1.078626,1.71012,-10.649939
7.490565,1.316409,2.850698,-9.325,-0.978066,6.206741,-10.242461
7.523814,1.191307,3.814548,-9.478085,-0.960857,3.608789,-8.970346
7.557138,2.186583,5.341505,-9.68145,-0.86344,3.634977,-9.042325
7.590457,1.971546,5.002264,-8.72164,-0.641819,3.393303,-9.081232
7.62318,0.727115,5.780557,-7.488283,-0.707961,3.399289,-9.05684
7.657224,1.330475,5.030697,-11.138673,-0.427979,3.53307,-9.139593
7.690495,6.945378,6.063831,-18.641321,-0.37725,3.437897,-9.172963
7.72379,5.090554,-0.112681,-7.766768,-0.354803,3.447175,-9.200048
7.757141,2.280708,0.361986,-4.925198,-0.435461,3.48279,-9.162039
7.790478,3.662062,2.478835,-9.482574,-0.602612,3.339432,-9.095298
7.823828,3.706656,3.681815,-11.010429,-0.44848,3.42428,-9.107419
7.857155,1.154046,4.1912,-9.858926,-0.329963,3.465431,-9.196008
7.890472,-0.71649,4.919213,-9.630721,-0.504895,3.325066,-9.201844
7.923844,0.843837,4.963657,-10.254732,-0.488884,3.389562,-9.14468
7.957145,0.990786,4.343686,-8.912135,-0.467784,3.355145,-9.155904
7.990472,0.966245,4.658834,-9.1155,-0.360191,3.396147,-9.164583
8.023828,1.29486,4.40489,-8.811575,-0.43187,3.248599,-9.231473
8.057148,2.205737,5.134399,-10.793446,-0.413613,3.282268,-9.166528
8.090474,3.635276,5.061673,-10.30576,-0.228954,3.417097,-9.278162
8.123784,2.621595,4.918614,-8.062014,-0.425136,3.41156,-9.275019
8.157241,0.886186,5.743596,-7.414209,-0.216833,3.494761,-9.379171
8.190351,-1.034332,7.346272,-5.296462,-0.098166,3.542049,-9.453095
8.223806,-4.850826,13.946723,4.65614,-0.00419,3.616571,-9.461325
8.257184,30.499776,12.519428,-51.623674,0.22626,3.840287,-9.697312
8.289816,-0.340288,-5.837122,-12.319056,-0.427231,3.627345,-10.463184
8.322972,-0.12166,4.394714,-9.977443,-3.576915,1.635897,-13.505575
8.357158,0.868528,3.104343,-8.978278,3.156269,1.253709,-15.119474
8.390475,1.072042,3.088331,-8.708022,-1.511244,1.492688,-14.253042
8.423813,1.207768,3.05511,-9.565327,-3.416498,2.157851,-11.423443
8.457158,1.301894,2.899781,-9.367499,-12.555492,-3.031766,-12.742995
8.490479,1.25296,2.931206,-9.344454,-3.4575,-2.322159,-8.164818
8.523806,1.281393,3.02189,-9.389047,-0.545449,-1.385843,-7.763177
8.557139,1.32419,2.985975,-9.294922,-1.328829,0.846829,-9.05684
8.59048,1.362798,3.022339,-9.369893,-1.305186,2.35553,-10.497602
8.623792,1.309675,3.047628,-9.250628,0.551584,3.812304,-12.478875
8.657125,1.322694,3.028624,-9.405807,-0.517016,2.607977,-13.160199
8.690479,1.276903,2.917439,-9.388,-5.575846,2.424216,-13.481483
8.723706,1.465004,3.120654,-9.441422,12.372778,51.524611,-13.100043
8.757139,1.345739,2.951557,-9.297167,3.010666,19.587065,8.793169
8.789592,1.373423,3.025631,-9.491403,8.936527,41.919479,-13.781218
8.823805,1.456026,3.014258,-9.439028,-0.471226,-4.279639,-8.653702
8.857138,1.270768,2.875539,-9.568469,-0.618325,4.753259,-9.896038
8.890513,0.354803,1.735559,-9.861919,-1.074137,3.320427,-9.040379
8.923821,1.774915,4.281434,-10.192181,-1.055432,3.383876,-9.038584
8.957145,3.856149,5.390887,-10.015004,-0.99737,3.227349,-9.105773
8.990507,1.252212,2.956496,-12.373676,-0.835606,3.330753,-9.135403
9.023794,3.08459,2.294326,-15.654448,-0.817799,3.357389,-9.165481
9.057138,3.307109,-1.037774,-7.780236,-0.8591,3.324168,-9.201994
9.090494,3.912265,-0.057912,-7.852214,-0.928534,3.442835,-9.073151
9.123811,4.280985,1.070097,-7.9839,-0.956518,3.383128,-9.093652
9.157163,3.485484,2.226687,-8.808882,-1.044807,3.324318,-9.149768
9.190525,1.777459,2.726345,-8.934432,-1.002308,3.384175,-8.992344
9.223792,0.617876,3.882486,-9.598248,-0.962204,3.289152,-9.183737
9.257188,0.624909,5.01259,-11.019557,-1.096883,3.440142,-8.990997
9.290453,1.015327,4.428384,-10.046579,-0.904891,3.524241,-9.122234
9.323805,2.306896,4.22442,-10.163899,-1.034631,3.410213,-8.980971
9.357138,2.404164,3.427422,-8.740794,-0.889478,3.630039,-9.043821
9.390453,2.007011,2.590768,-7.563254,-0.89262,3.494612,-9.120139
9.423833,2.209478,3.611633,-10.902087,-0.848625,3.427572,-9.126723
9.457131,1.660588,5.791631,-14.133028,-1.038223,3.385073,-8.988453
9.490455,0.502351,4.803838,-9.300159,-0.882744,3.438496,-9.171616
9.523829,0.302877,4.004445,-5.92601,-0.855359,3.44104,-9.213367
9.557144,0.252448,4.777201,-6.700862,-0.818697,3.461092,-9.275468
9.590469,-2.087669,12.012588,-7.866879,-0.826029,3.510773,-9.426009
9.623848,-2.498289,15.116182,4.947944,-0.618175,3.674183,-9.583883
9.657143,2.247038,9.514598,-11.666763,-0.834858,3.809161,-9.97894
9.690926,-3.998759,29.218833,-10.864377,-1.14402,3.71728,-10.702613
9.723807,1.732865,4.952134,-11.206012,-5.190216,0.985698,-12.445654
9.757139,1.602227,3.879194,-10.041191,-1.220638,7.000447,-14.994523
9.790583,1.245329,3.692889,-9.819421,1.054534,2.446513,-13.029411
9.823789,1.245478,3.454058,-9.116099,-1.372974,5.977637,-12.75751
9.857137,1.092094,3.155371,-9.113405,-6.341569,18.006685,-23.166075
9.890449,1.136837,3.278527,-9.231174,-13.547924,-1.451387,-11.653145
9.923798,1.185471,3.314142,-9.272476,-1.948351,-1.918572,-6.052758
9.957124,1.207619,3.305313,-9.212469,0.822737,-0.316944,-7.018853
9.990481,1.186818,3.226751,-9.228929,0.344628,2.147227,-8.554788
10.023808,1.227072,3.278677,-9.264993,-1.949997,3.372054,-9.372886
10.057172,1.227222,3.286309,-9.27891,-1.644127,4.918614,-12.929899
10.090521,1.167065,3.229145,-9.175507,-2.811192,5.385201,-14.571632
10.123836,1.297704,3.230043,-9.458182,-7.764224,6.001879,-14.729355
10.157159,1.419962,3.348261,-9.552757,4.095279,26.211309,-0.814806
10.190483,1.411732,3.350805,-9.513251,13.447963,47.398057,5.831436
10.22381,1.349929,2.979092,-9.75672,2.142139,-1.071593,-12.56911
10.257221,1.862606,3.530676,-9.984177,-0.031275,4.154986,-10.439691
10.290015,0.821839,4.100217,-9.745198,-1.341848,3.540103,-8.883853
10.323826,2.720658,5.484564,-11.017761,-0.639424,3.796292,-9.015688
10.356251,2.281007,4.336802,-10.694233,-0.75869,3.431462,-9.164882
10.390476,1.455727,2.031403,-16.105621,-0.869725,3.400486,-9.204837
10.423831,4.819401,0.190196,-11.422695,-0.856856,3.497904,-9.074498
10.457125,4.696394,-0.858801,-7.152484,-0.942302,3.453011,-9.054146
10.490471,5.39388,0.555624,-8.732115,-0.731155,3.60834,-9.108168
10.523831,3.688399,2.33428,-9.541683,-0.836504,3.599362,-9.075695
10.557131,0.851019,2.540937,-7.754647,-0.904891,3.597416,-9.048011
10.590532,0.020651,5.278805,-12.4473,-0.7545,3.737183,-9.080334
10.623811,-0.265467,4.993435,-9.992557,-0.765424,3.790905,-9.077491
10.65715,-0.36064,4.267667,-8.954784,-0.811364,3.649492,-8.986358
10.690512,1.363547,4.623219,-10.083091,-1.184723,3.706057,-8.747079
10.723804,2.346252,4.336054,-10.617466,-1.149707,3.863931,-8.718048
10.757137,1.447646,3.735088,-9.046515,-0.732652,3.824574,-8.974686
10.790522,0.274744,2.998845,-8.274656,-0.661422,3.822928,-9.051154
10.823825,-0.15488,3.480845,-9.434389,-0.67893,3.769207,-9.085422
10.857137,0.194835,4.321389,-9.744749,-0.576425,3.826969,-9.110562
10.890461,1.630958,8.554788,-7.804478,-0.53228,3.867672,-9.116847
10.923811,-1.905104,12.037728,-5.064516,-0.847877,3.814548,-9.226685
10.957137,-1.318953,16.741604,2.801017,-0.432618,3.908374,-9.443368
10.990477,3.119756,19.376966,-5.869894,-0.273248,4.089293,-9.65601
11.023807,0.198726,0.327269,-8.410532,-1.484458,3.748257,-10.289748
11.057163,1.534439,3.364871,-9.206483,-3.231539,2.331736,-11.085101
11.09047,1.35382,3.294389,-9.638353,-1.855273,5.659197,-13.496148
11.123804,1.272414,3.026379,-9.537194,1.465753,2.312283,-11.815059
11.157133,1.183676,3.010666,-9.423016,-2.165633,3.83071,-12.009894
11.190474,1.023258,2.827803,-9.147374,-5.66623,12.850438,-22.494477
11.223563,1.159882,2.971759,-9.411045,-9.950208,-2.629825,-12.896828
11.257137,1.120975,2.965325,-9.320511,-0.832015,0.18855,-10.195174
11.29047,1.137885,2.838427,-9.294623,-0.799692,0.216084,-8.086256
11.323865,1.12322,2.940035,-9.333081,-0.217581,0.833062,-7.709455
11.357137,1.225875,2.830796,-9.294772,0.558019,4.492581,-11.310313
11.390503,1.222433,2.872247,-9.331136,0.369468,4.068193,-11.727218
11.423864,1.163175,2.93809,-9.372437,-1.09823,3.914061,-12.478875
11.457144,1.101073,2.688485,-9.189274,-2.540788,25.648352,15.027893
11.490458,1.237248,2.81239,-9.246887,10.714585,24.798979,-3.693038
11.523805,1.386143,2.852195,-9.433342,1.74783,38.370547,6.43749
11.557144,1.589657,2.820321,-9.735471,-0.639424,-1.797661,-6.542689
11.590471,1.031638,2.746547,-10.243658,-0.776348,5.297061,-10.160457
11.623804,0.360789,2.144982,-9.353732,-0.856107,3.459895,-9.307492
11.65713,2.639851,5.445806,-10.471864,-1.120676,3.633181,-9.009852
11.690474,3.692589,5.624929,-10.848365,-0.885437,3.548633,-9.086469
11.723808,1.196994,4.130744,-9.808946,-0.799842,3.329556,-9.256314
11.75716,0.948736,1.045705,-14.370661,-0.889927,3.383128,-8.980373
11.790478,4.692354,0.589743,-12.9293,-0.906238,3.533968,-9.155604
11.823805,5.107463,-0.374107,-8.457071,-0.695989,3.485484,-9.221747
11.857137,5.680895,0.997071,-8.552843,-0.759288,3.462887,-9.145279
11.890476,5.822158,2.247038,-9.025714,-0.861943,3.417546,-9.127621
11.923806,3.015305,3.991277,-9.870299,-0.847129,3.451664,-9.093353
11.957174,-0.022297,4.477616,-9.678008,-0.987045,3.400486,-9.061629
11.990088,-0.552033,4.368826,-9.980436,-0.960109,3.487279,-9.035142
12.023841,-0.204263,4.269313,-10.986636,-0.889029,3.455705,-9.140341
12.057219,0.790414,3.694984,-10.460042,-0.933772,3.409016,-9.072253
12.090473,1.794668,3.458997,-9.166079,-0.847428,3.420389,-9.064173
12.123804,2.423168,2.899182,-7.595277,-0.837402,3.390011,-9.099788
12.157126,1.805143,4.523557,-9.556498,-0.828723,3.355444,-9.092754
12.190527,0.47781,5.761852,-8.328827,-0.727863,3.391657,-9.188077
12.223663,0.286716,8.33182,-7.364977,-0.776647,3.305164,-9.202443
12.256757,1.23635,14.440095,-7.828571,-0.644063,3.343323,-9.389347
12.290506,-0.387126,14.55128,0.708559,-0.503549,3.43236,-9.694469
12.323059,11.679333,23.459525,-5.275662,-0.483347,3.825472,-9.878829
12.35632,-0.173885,-6.82312,-10.323119,-0.659177,3.794646,-10.330152
12.390499,-0.345974,5.515091,-10.347062,-2.04517,3.680468,-11.209604
12.423809,1.538629,3.925883,-9.760461,-3.673734,-0.187203,-13.957946
12.457136,1.066805,2.955299,-9.099638,0.278934,9.712127,-14.657976
12.490512,1.267925,3.060647,-9.520135,-1.221386,1.238146,-12.177494
12.523808,1.247723,2.994954,-9.42975,-5.804351,8.39048,-13.663299
12.55712,1.219889,2.857432,-9.63955,-12.332674,5.263541,-17.167787
12.590456,1.218991,2.912052,-9.183887,-12.111202,-5.501324,-7.494568
12.623831,1.32419,3.045982,-9.498586,0.043546,-0.006584,-8.029841
12.657111,1.255205,2.975351,-9.4088,-1.060669,0.516268,-7.241821
12.690471,1.276604,2.953204,-9.314226,-2.304801,2.444418,-9.546921
12.723817,1.31611,3.024134,-9.299112,-1.549852,4.55558,-13.189978
12.757141,1.324939,2.913698,-9.257661,-6.947922,9.118493,-17.595616
12.790478,1.280195,2.960536,-9.327694,1.996237,5.450295,-10.04583
12.82384,1.315511,3.272242,-9.346848,14.070777,41.295617,0.073475
12.857144,1.458121,2.883919,-9.569068,16.928209,43.721629,11.253599
12.89047,1.614198,2.77049,-9.680103,-1.18203,-4.750864,-7.966392
12.923804,1.348882,2.818226,-9.721853,-1.385993,3.941146,-9.449653
12.957141,-1.955833,0.164158,-9.346549,-1.04765,3.538756,-9.433342
12.990471,2.06612,3.973619,-10.623602,-0.582859,3.556414,-9.251526
13.023798,2.496344,4.922804,-10.289599,-0.563855,3.576317,-9.187927
13.057144,-0.152187,2.81643,-11.901403,-0.756295,3.406622,-9.091857
13.090472,2.744901,3.43655,-17.298874,-0.81301,3.423531,-9.040379
13.123789,4.141967,-1.474432,-7.564451,-0.515819,3.534117,-9.048161
13.157139,4.815959,-0.195284,-8.954484,-0.769165,3.409315,-8.988154
13.190476,6.854096,0.831416,-9.577298,-0.675638,3.492217,-9.232521
13.223805,3.442686,2.554106,-8.891784,-0.633289,3.479348,-9.137947
13.257169,1.267925,3.379387,-8.790326,-0.643764,3.363375,-9.168025
13.29051,0.238232,4.663323,-10.88817,-0.49038,3.501196,-9.247485
13.323803,0.747018,5.015134,-10.00408,-0.656633,3.513616,-9.095747
13.357137,2.049959,4.783935,-9.640597,-0.801188,3.442386,-9.003567
13.390498,2.373337,4.696843,-9.741457,-0.803583,3.42817,-9.067165
13.423806,2.442622,4.09468,-8.642778,-0.659925,3.470519,-9.139293
13.457172,1.42475,4.05682,-7.89576,-0.664265,3.476206,-9.054146
13.490519,1.610906,4.87432,-7.990185,-0.688208,3.452861,-9.109215
13.523846,0.845782,4.451578,-7.277585,-0.485891,3.48698,-9.259606
13.557224,1.724485,8.919917,-9.448156,-0.516418,3.522445,-9.259906
13.590476,2.031104,10.210138,-10.522443,-0.537368,3.486531,-9.200797
13.623827,-1.167814,9.849798,-1.004553,-0.496964,3.708152,-9.286542
13.657187,-0.288212,12.606969,1.64278,-0.295096,3.678224,-9.347746
13.690499,5.576295,6.851851,-17.43071,-0.3352,3.764119,-9.431995
13.723825,-2.766748,3.286907,-12.107611,0.008679,3.896852,-10.047776
13.757137,2.925071,2.452049,-9.841568,-0.749113,3.643357,-10.990676
13.790499,1.429539,3.02189,-9.593609,-4.466094,0.154731,-12.549207
13.823806,0.965945,2.928961,-9.432893,1.937876,5.461519,-15.405592
13.857153,1.035679,2.998545,-9.356725,-2.28415,1.880114,-12.855975
13.890473,0.990337,2.762409,-9.310335,-7.7117,1.414275,-19.089053
13.923812,1.09808,2.865962,-9.336822,-7.362882,1.019966,-11.822391
13.957159,1.129655,2.849501,-9.411494,-1.733763,-2.544978,-8.202678
13.990475,1.032387,2.768694,-9.264694,-2.905617,-1.21944,-8.678094
14.023803,1.100474,2.948265,-9.401168,-3.693786,1.352174,-9.051453
14.05714,1.159284,2.918486,-9.370492,-2.111462,3.001688,-10.361278
14.090556,1.224528,2.905767,-9.406107,-1.067253,4.093932,-11.579521
14.123804,1.209115,2.973555,-9.479731,-1.369832,3.699024,-12.233461
14.157137,1.078926,3.001838,-9.494396,-5.81722,6.715227,-15.127405
14.190458,1.305335,3.559407,-9.649725,15.201928,55.017576,-4.622022
14.223806,1.314314,2.826606,-9.481976,22.1497,67.486425,-18.10949
14.257145,1.432981,2.437085,-9.437232,-0.601116,-3.436101,-4.163665
14.289563,1.482962,2.952156,-9.987021,-0.894566,4.938965,-11.015816
14.323803,-0.151289,2.731732,-9.744449,-0.791013,2.989268,-9.231024
14.356594,1.876822,3.19353,-10.024581,-0.859699,3.527533,-9.219352
14.390469,2.338021,3.466329,-9.817924,-0.769763,3.798686,-9.235813
14.423828,2.162341,4.789173,-10.128882,-0.623712,3.508379,-9.169521
14.457148,1.299948,2.308093,-11.251354,-0.624909,3.510773,-9.193015
14.490472,1.734811,3.330753,-15.786882,-0.680426,3.350206,-9.083477
14.523827,4.075975,-1.466651,-7.821687,-0.595729,3.286309,-9.177153
14.557142,5.253515,-0.143208,-8.907496,-0.608598,3.483239,-9.208578
14.590454,5.090853,0.728761,-9.361363,-0.78802,3.403479,-9.109065
14.623814,3.753195,2.067916,-9.441722,-0.854611,3.417845,-9.036938
14.657145,1.35367,2.835285,-10.301869,-0.856706,3.542049,-9.07375
14.69047,1.115887,3.313095,-10.650837,-0.679978,3.443135,-9.184037
14.723857,0.116572,3.596818,-10.20505,-0.659327,3.451664,-9.153659
14.757141,0.928235,3.710547,-10.142949,-0.709457,3.526037,-9.058486
14.790473,1.771174,3.896553,-10.111673,-0.753752,3.446576,-9.103678
14.823791,1.831779,3.459446,-9.246887,-0.66202,3.467826,-9.192267
14.856462,1.232908,4.218584,-11.046044,-0.691201,3.471118,-9.112208
14.890496,0.969088,3.845973,-9.389496,-0.705417,3.498353,-9.088714
14.923776,0.102056,3.18949,-7.339538,-0.701975,3.499101,-9.137498
14.957161,0.864188,2.850548,-6.859333,-0.583458,3.515412,-9.213965
14.990471,0.378297,5.786244,-8.04675,-0.42768,3.609089,-9.380518
15.023879,-0.124503,7.714543,-4.09902,-0.520907,3.647248,-9.483771
15.057138,3.464683,22.272557,-4.277244,-0.253196,3.839239,-9.579393
15.090476,-1.083116,16.337718,-0.476313,-0.193189,3.848966,-9.856831
15.12378,0.531831,0.675189,-8.30668,-1.141476,3.515562,-10.949225
15.157135,0.872418,3.073367,-9.223243,-4.556777,1.006199,-12.353175
15.190477,1.476078,3.150583,-9.557994,1.234405,6.948371,-14.88678
15.224304,1.22363,3.019495,-9.44681,-0.675937,0.16341,-11.880602
15.257127,1.164671,2.936593,-9.618151,-1.339304,4.028987,-10.899394
15.29047,1.107807,2.884218,-9.419425,-8.262835,18.13882,-26.665326
15.323882,1.210462,2.966222,-9.39234,-12.592005,-5.672814,-10.88413
15.356292,1.238595,3.018298,-9.381715,-0.467634,0.377549,-10.664604
15.390474,1.236799,3.000491,-9.36301,-3.984094,0.298687,-7.730405
15.423777,1.238894,2.976249,-9.356126,-2.83738,1.63859,-8.359055
15.457143,1.24877,3.016652,-9.364805,-1.412929,4.028687,-13.219608
15.490494,1.231113,3.00483,-9.447558,-1.680341,6.163494,-16.819119
15.524068,1.259096,2.950211,-9.320511,-9.277563,6.881032,-16.69297
15.55714,1.453931,3.172131,-9.583284,27.490606,74.689339,-3.804223
15.590492,1.104066,3.014856,-9.71901,7.465537,38.056895,-14.058656
15.62381,1.49613,2.313779,-9.639699,-1.062016,-6.194021,-10.531272
15.657199,0.304374,1.379109,-9.4926,-1.126213,-0.621018,-9.235065
15.690477,1.607465,4.273653,-10.314439,-0.638826,3.810209,-7.55233
15.723807,3.212684,5.543822,-10.279423,-2.257214,6.928319,-10.825171
15.757139,1.455427,4.169501,-9.642393,-0.24721,3.473512,-9.350739
15.790476,1.655051,-0.657232,-16.412838,-0.148446,3.569732,-9.246737
15.823806,5.625827,-0.639125,-10.886225,-0.616828,3.546538,-9.042025
15.85629,5.131706,-1.271516,-6.452903,-0.530933,3.49132,-9.116847
15.890458,5.966414,0.094574,-7.454613,-0.362585,3.519004,-9.127472
15.923803,4.924899,1.942665,-9.026313,-0.589444,3.511521,-9.021075
15.956906,2.948864,2.645089,-8.655498,-0.484095,3.418892,-9.149319
15.990006,0.758839,4.587155,-11.069388,-0.346274,3.432211,-9.196307
16.023182,-0.110736,6.469065,-11.665566,-0.350314,3.436251,-9.172215
16.056375,-0.861794,5.382806,-9.338019,-0.591539,3.362028,-9.142735
16.09047,1.331373,4.652998,-9.366302,-0.273847,3.449868,-9.155006
16.123832,2.79967,5.37712,-10.307257,-0.413463,3.317734,-9.275917
16.15714,2.22953,4.884196,-8.761295,-0.341784,3.381033,-9.187329
16.190476,1.168861,4.16606,-7.63179,-0.245863,3.373551,-9.239105
16.223808,1.419812,3.760378,-6.623346,-0.36887,3.363076,-9.250927
16.257144,1.520522,6.938644,-9.801314,-0.31859,3.404676,-9.286991
16.29047,2.50218,8.292913,-10.721917,-0.185408,3.484586,-9.307941
16.323798,0.093377,6.975606,-5.893837,-0.194835,3.518405,-9.345801
16.357144,-0.131387,7.490677,-3.783572,0.179721,3.57093,-9.416731
16.390471,0.054919,11.72228,-4.916519,0.099961,3.649492,-9.377525
16.423788,13.486421,15.814865,-12.460619,0.568045,3.890417,-9.375729
16.45714,-2.666637,-2.767497,-6.282011,0.615631,3.924386,-9.824957
16.490477,0.443542,2.270084,-8.332269,-0.508936,3.841933,-10.644402
16.523807,1.209414,3.770404,-10.034158,-1.460066,0.746868,-11.607354
16.557175,1.302043,3.015754,-9.429002,1.666424,6.943133,-14.744469
16.590552,1.171405,2.964726,-9.37947,-2.206186,1.84839,-11.703725
16.623811,1.212108,2.826606,-9.550363,-5.185727,8.555237,-16.468057
16.65716,1.199239,2.932852,-9.521631,-12.059127,1.129355,-13.631874
16.690456,1.247124,2.848753,-9.378572,-9.307342,-2.818675,-11.376605
16.723813,1.256851,2.920731,-9.401917,-1.864252,-0.790713,-9.260205
16.757137,1.242485,2.893795,-9.399373,-2.15441,1.797062,-10.728651
16.790465,1.309076,2.921779,-9.382613,-2.355081,1.870686,-9.903819
16.823814,1.317606,2.894843,-9.349542,0.933772,2.773333,-11.769567
16.857135,1.20702,2.978344,-9.369295,1.363696,4.278741,-15.33092
16.890475,1.258348,2.94647,-9.344603,-0.457907,6.046024,-17.583495
16.923834,1.321048,2.704347,-9.494695,14.842336,61.441149,-3.973918
16.957174,1.176642,2.828701,-9.50128,17.718772,36.09747,17.10389
16.990471,1.406195,2.532258,-10.146989,0.282975,22.385388,-7.05776
17.023805,1.03538,2.147077,-9.92866,-0.623861,-5.018276,-1.018919
17.057143,-0.226859,-0.276241,-9.042624,0.790863,2.804608,-6.518746
17.090471,1.908397,5.122128,-9.471201,-0.414062,4.698489,-8.923807
17.123807,2.689084,6.654472,-9.901724,-1.184424,4.002051,-9.650174
17.157129,2.177155,5.965366,-8.593097,-0.445637,3.916006,-9.382463
17.190504,1.70997,3.873508,-11.443944,-0.919406,3.304116,-8.930541
17.223801,2.609923,5.345545,-17.515557,-1.052588,3.699473,-9.045766
17.257138,4.949141,0.470777,-8.890886,-0.853114,3.468873,-9.189723
17.289942,3.854952,1.276754,-6.114112,-1.006798,3.501346,-9.127023
17.323025,5.125869,2.654516,-8.276153,-1.011287,3.56255,-9.032299
17.357127,3.947431,3.223758,-8.318053,-0.9848,3.419042,-9.183887
17.39061,1.949997,4.162019,-8.930092,-1.004403,3.606245,-9.043223
17.423808,0.23045,5.111803,-9.657208,-1.069797,3.63782,-9.015389
17.457142,0.845333,5.091901,-10.330302,-1.068151,3.742869,-8.973938
17.490463,1.179486,4.014771,-8.938622,-1.24892,3.594274,-8.905102
17.523806,3.366667,4.225318,-10.01665,-1.16093,3.651587,-8.787632
17.557131,3.461092,4.068941,-9.276366,-1.201483,3.61253,-8.894328
17.590458,3.154174,3.883833,-10.531422,-1.01428,3.630488,-9.049358
17.623901,2.682948,3.091474,-9.534201,-0.921352,3.562699,-9.227732
17.657159,1.651609,1.999978,-7.374404,-0.828723,3.632283,-9.193165
17.690092,2.282205,2.077493,-7.976867,-0.880948,3.639915,-9.139892
17.723807,4.52221,3.31504,-9.417779,-0.959211,3.699024,-9.065968
17.757145,3.211338,7.193785,-10.137262,-1.005601,3.632283,-9.181942
17.790454,0.618923,10.36023,-9.970261,-1.024456,3.64635,-9.216808
17.823855,-1.617491,14.18256,-3.061844,-0.954572,3.867223,-9.356874
17.857143,0.918808,22.974382,7.787868,-0.462846,4.119371,-9.094251
17.890541,-12.840562,18.442895,-17.996959,-1.138783,3.997711,-9.820618
17.92383,0.596926,1.618837,-9.080783,-3.534716,2.406109,-11.414614
17.956475,1.277951,4.394864,-10.946681,0.178374,0.757642,-12.274014
17.990779,1.172901,3.367116,-9.524474,2.421522,6.741265,-15.257296
18.023826,0.888729,2.959339,-9.3253,-0.532579,0.502351,-14.944841
18.05714,1.023109,2.889755,-9.375879,-2.484372,10.373399,-23.659747
18.090456,1.183077,2.855636,-9.397876,-8.622277,-4.668411,-15.671358
18.123138,1.396767,3.020094,-9.572809,-5.735964,0.223267,-13.662551
18.156327,1.221236,2.916242,-9.324102,-6.605838,0.831267,-10.418441
18.190471,1.178438,2.897836,-9.328891,-3.269698,2.767197,-8.453929
18.223823,1.215101,2.920581,-9.305397,-1.252362,4.845289,-10.711143
18.257039,1.222583,2.939287,-9.33338,-4.12416,5.109858,-11.59239
18.29013,1.178588,2.884817,-9.315273,-5.144874,8.526805,-18.121312
18.323812,1.227222,2.70749,-9.493199,5.302448,55.840762,27.182342
18.357159,1.226923,2.888259,-9.543629,6.866965,49.641803,5.365448
18.390561,1.482812,2.749839,-9.809993,4.604364,24.436992,-18.728264
18.423807,1.414126,2.635212,-10.138908,-0.060755,-3.205352,-2.772884
18.457157,0.668006,2.270383,-9.649276,-0.3774,4.254199,-9.130015
18.490476,1.847641,4.733655,-9.989415,-1.558082,3.50808,-8.858862
18.523818,1.913335,4.353113,-10.14235,-0.894715,3.664157,-9.113106
18.557126,2.543032,5.007203,-9.455938,-0.622215,3.45331,-9.230576
18.590518,1.006199,3.243661,-9.949311,-0.69584,3.577514,-9.1155
18.623806,0.672346,1.690666,-14.959955,-0.814806,3.498652,-9.043073
18.657143,3.820384,-0.294497,-8.837464,-0.774552,3.46618,-9.087816
18.690472,4.531488,0.530335,-8.223329,-0.784279,3.332698,-9.279209
18.723807,5.479176,1.355765,-8.404098,-0.816153,3.505386,-9.046964
18.757145,3.361579,3.542497,-9.9746,-0.637479,3.221663,-9.262449
18.790473,0.887083,3.104642,-7.45581,-0.72936,3.386719,-9.134505
18.822982,-0.596177,3.617169,-8.190407,-0.707512,3.414852,-9.110712
18.857143,1.213904,4.792016,-10.064835,-0.758839,3.511671,-9.050106
18.89051,2.001474,4.98715,-9.560389,-0.76677,3.573623,-9.026163
18.923809,1.932339,4.563811,-9.45489,-0.722027,3.511821,-9.11969
18.957139,1.539976,4.619178,-10.067977,-0.651096,3.500149,-9.093952
18.990473,1.224678,4.50111,-9.943325,-0.568494,3.485184,-9.206782
19.023809,0.537517,3.524391,-8.618386,-0.7123,3.36966,-9.129417
19.057137,0.593334,3.263713,-9.261103,-0.542905,3.523493,-9.171766
19.090498,1.191756,3.532322,-9.43828,-0.443991,3.482491,-9.242846
19.123877,1.521569,4.611098,-9.909805,-0.588845,3.489075,-9.189424
19.157138,2.608875,3.941895,-9.11116,-0.429924,3.512719,-9.275768
19.190471,1.115738,4.955725,-8.042111,-0.543653,3.578861,-9.25796
19.223808,0.460302,6.755032,-4.088395,-0.417653,3.712492,-9.301806
19.257138,-0.964598,10.848066,-0.016161,-0.130189,3.784919,-9.38366
19.290452,9.250777,24.07321,-8.243531,0.008081,3.94399,-9.426458
19.323844,-1.940719,-7.088287,-11.227112,-0.278934,3.955512,-10.58664
19.357142,-0.33954,5.027105,-11.016714,-3.367715,2.440527,-11.855762
19.390475,1.592201,2.896339,-9.10308,1.696801,-0.493672,-12.118535
19.423839,1.300696,2.930009,-9.233119,0.772756,3.519901,-13.782864
19.457144,1.252063,3.008571,-9.406556,-2.835285,2.371691,-12.538433
19.490491,1.284385,2.918037,-9.634611,-5.616998,12.353923,-19.18677
19.523806,1.217495,2.963978,-9.322756,-13.10109,-3.581105,-12.242439
19.557144,1.276454,3.015006,-9.326197,-2.732331,-2.368848,-9.524175
19.590473,1.292017,3.021291,-9.335924,-1.129206,0.482599,-8.842402
19.623876,1.314015,2.925819,-9.597201,-3.953267,1.677049,-8.098377
19.65714,1.220787,3.090875,-9.305996,-2.300461,3.460344,-11.750114
19.690477,1.268523,2.993607,-9.162189,-1.753217,4.315553,-14.852661
19.723771,1.313267,3.056158,-9.341611,-8.906599,11.293104,-15.62407
19.756487,1.458719,2.769592,-9.953201,16.580439,46.573225,-11.289812
19.789928,1.324041,2.754927,-9.66035,19.829486,31.949218,18.058163
19.823829,0.985399,2.306746,-9.383511,-1.513189,-1.24473,-5.450894
19.857166,0.629548,1.2784,-9.420772,-2.088267,4.985055,-10.664155
19.890555,1.577237,4.069989,-9.77348,-0.118966,3.770404,-9.439028
19.92381,3.036704,5.772926,-9.561586,-0.517914,3.643357,-9.176854
19.957138,2.45609,5.003462,-9.138395,-0.417953,3.440591,-9.14498
19.990558,0.923447,2.88766,-9.959337,-0.33101,3.386719,-9.265143
20.023811,3.753045,4.097673,-16.541681,-0.450126,3.447923,-9.165182
20.057139,3.652186,-0.555026,-7.280129,-0.486489,3.421586,-9.126274
20.090471,4.48031,2.034695,-9.465515,-0.367972,3.342126,-9.24539
20.123807,4.045148,1.805442,-7.301528,-0.430672,3.293192,-9.338318
20.157212,2.580742,2.952605,-8.977679,-0.578969,3.459895,-8.972292
20.190512,1.486104,3.057056,-8.397663,-0.399547,3.344221,-9.177153
20.223676,1.033883,4.215741,-9.549764,-0.439501,3.344221,-9.133457
20.256837,1.629911,4.327225,-9.515346,-0.497413,3.385223,-9.068662
20.289742,2.91265,4.482704,-10.497752,-0.459703,3.312047,-9.034244
20.323804,1.580828,4.05293,-9.125825,-0.572235,3.351254,-9.106671
20.357122,2.176557,3.891016,-9.800566,-0.537817,3.36562,-9.171317
20.390476,1.605818,3.454208,-9.713922,-0.447283,3.389113,-9.206633
20.423797,1.501817,3.46199,-9.658105,-0.433965,3.389113,-9.188526
20.45712,0.801637,4.053678,-9.427805,-0.389521,3.420838,-9.224889
20.490473,0.371115,3.574671,-7.237331,-0.524349,3.415002,-9.181044
20.523872,1.048847,3.387018,-6.565734,-0.3771,3.470968,-9.223842
20.557121,2.154858,3.731945,-5.305591,-0.37321,3.456153,-9.267088
20.590484,1.612403,8.902558,-10.797487,-0.405832,3.5205,-9.345202
20.62381,0.272051,10.966134,-2.403266,0.03367,3.702615,-9.72724
20.657573,-3.890118,28.984642,-7.89576,-0.141562,3.745413,-9.80296
20.69055,0.108341,-1.82729,-7.902794,-0.044743,3.996065,-10.447771
20.723828,1.279298,3.326114,-10.001237,-2.205587,3.081448,-11.735449
20.757434,1.266578,3.209392,-9.594657,-3.36547,-2.047564,-13.758921
20.789576,1.385694,2.886463,-9.851444,-2.401769,4.695945,-15.066501
20.823806,1.314015,2.968018,-9.431097,-0.272799,1.84809,-13.024473
20.857133,1.302043,2.917589,-9.378423,-4.275898,3.921094,-12.934388
20.890478,1.27421,2.94632,-9.385157,-9.519985,2.840073,-18.280382
20.923805,1.460066,2.860874,-10.071868,-7.857901,-3.869168,-8.347832
20.95713,1.343943,2.97146,-9.563681,-2.559643,0.789815,-8.835069
20.990472,1.287378,2.905019,-9.364356,-4.27919,1.426546,-6.846165
21.02381,1.318504,2.973854,-9.317967,-2.595108,3.546388,-10.114367
21.057139,1.368485,2.915643,-9.332931,-2.710932,5.340906,-14.259776
21.090477,1.288126,2.915643,-9.241499,-9.314525,7.884687,-15.322989
21.123833,1.34948,2.81209,-9.239554,2.005365,50.471872,42.949471
21.157119,1.333618,2.929111,-9.53869,18.520709,44.045456,-4.242976
21.190471,1.448095,2.926567,-9.366451,-0.676536,-0.404036,-14.55966
21.223825,1.421608,2.86671,-9.703896,-1.014579,3.203855,-8.270915
21.257142,0.927786,2.00731,-9.110113,-1.371478,3.45331,-8.816065
21.290512,0.283124,1.846744,-9.013294,-0.698533,3.881588,-8.871881
21.323888,1.703386,4.799049,-9.820917,-0.551883,3.655029,-9.040529
21.357137,2.740411,4.737546,-9.490056,-0.101458,3.573025,-9.31243
21.389739,1.409637,4.036768,-9.346698,-0.263671,3.564345,-9.236412
21.423808,1.214801,1.044059,-10.944137,-0.60336,3.492367,-9.017783
21.457139,3.563447,2.389798,-13.902728,-0.551584,3.563747,-9.050256
21.490464,4.323783,0.667408,-8.654899,-0.459853,3.521697,-9.120438
21.523807,4.672751,2.333831,-9.587025,-0.525845,3.597117,-9.020626
21.557143,3.544443,2.427658,-8.677944,-0.443242,3.558509,-9.088564
21.590473,1.842105,2.427508,-8.382848,-0.522553,3.550129,-9.097543
21.623805,1.104515,3.174077,-10.18021,-0.414661,3.539355,-9.144232
21.657144,0.965496,3.662212,-9.648379,-0.403138,3.437897,-9.116099
21.69047,0.504596,3.518255,-8.67959,-0.374257,3.39884,-9.188227
21.723804,1.5925,3.669095,-9.977593,-0.377848,3.367715,-9.176105
21.757161,1.146564,4.691905,-10.827266,-0.346872,3.402432,-9.162937
21.790471,0.778892,4.496471,-9.023619,-0.341635,3.348111,-9.223243
21.823812,1.06471,4.618281,-9.321708,-0.369468,3.343921,-9.227134
21.857139,0.618624,3.051519,-7.02828,-0.321283,3.354097,-9.222794
21.890554,0.764227,3.36966,-8.20193,-0.304673,3.421885,-9.172813
21.923722,2.432745,3.955512,-9.218604,-0.250951,3.426225,-9.332782
21.957141,2.019731,6.08134,-8.61255,-0.261726,3.423232,-9.302105
21.990478,-2.105327,8.215847,-3.794047,-0.129142,3.592029,-9.375879
22.023804,-1.257599,21.139012,-3.640813,-0.332357,3.571379,-9.527617
22.05714,15.090294,16.307639,-16.284894,0.083351,3.740625,-9.746844
22.090512,-2.552759,-0.458506,-12.421113,0.358395,3.886078,-11.156929
22.123795,0.636731,3.843429,-9.496641,-3.224357,1.636495,-12.801655
22.157156,0.950382,2.855786,-9.117894,3.440591,-1.380157,-12.709924
22.190475,1.339155,2.740262,-9.39638,1.188315,1.9277,-12.305439
22.223804,1.407691,3.250095,-9.490206,-0.721578,4.234297,-11.169499
22.257161,1.305784,2.922078,-9.298962,-7.303923,11.57159,-23.62907
22.290477,1.312369,2.895441,-9.263048,-10.249045,-2.514002,-10.44822
22.323806,1.394373,2.978942,-9.579393,-0.91776,1.207319,-9.565327
22.357137,1.331523,2.92522,-9.285195,-4.15753,1.240989,-7.093076
22.390546,1.322245,2.911154,-9.190022,-2.451002,2.130916,-7.750008
22.423805,1.396019,3.018298,-9.324402,-0.537667,3.841035,-11.338745
22.457145,1.34529,3.060647,-9.361962,-0.498161,4.444545,-13.44901
22.490449,1.305784,3.057056,-9.167725,-2.303155,4.119072,-12.935885
22.523781,1.440164,2.853841,-9.635809,2.278015,23.693566,25.832263
22.556395,1.35771,2.784107,-9.459829,20.293679,41.38241,14.503394
22.590472,1.479221,2.700906,-9.53899,-1.190709,-7.666807,-14.588092
22.623829,1.507204,3.230642,-9.644638,-1.920518,2.875689,-10.887422
22.657139,0.300034,1.871285,-9.109065,-1.125315,2.887361,-8.456323
22.690458,1.929197,3.246953,-9.83648,-0.803583,3.518555,-9.097094
22.723809,1.93608,4.891978,-9.423615,-0.839198,3.502692,-9.099039
22.757145,2.327097,4.456367,-10.019643,-0.618774,3.325814,-9.189124
22.79047,0.417504,1.954786,-10.709197,-0.700179,3.453161,-9.222046
22.823805,3.350955,1.729274,-13.429108,-0.745072,3.489225,-9.157101
22.857145,1.728526,0.375454,-7.02828,-0.726367,3.294389,-9.093054
22.890473,3.546538,1.156291,-8.800352,-0.798195,3.426075,-9.075545
22.923835,3.768458,1.774466,-9.272625,-0.76288,3.445978,-9.163236
22.957138,2.429753,2.126426,-8.737053,-0.762132,3.332249,-9.178051
22.990469,1.836568,2.988819,-9.191519,-0.807623,3.326712,-9.177153
23.023819,1.323143,3.884432,-8.769376,-0.765873,3.366517,-9.277114
23.057137,1.037923,4.33755,-9.279958,-0.80059,3.217174,-9.099039
23.090474,1.010539,4.192098,-8.972142,-0.778143,3.413056,-9.151714
23.123782,2.614412,4.987749,-10.419788,-0.76707,3.36966,-9.128968
23.157162,2.018983,4.654195,-8.794666,-0.944397,3.363973,-9.047861
23.190573,2.30929,4.280088,-8.623175,-0.902646,3.483089,-9.044569
23.223794,1.570054,4.726622,-9.251526,-0.840096,3.435802,-8.954784
23.257141,0.67459,3.96464,-7.669201,-0.95966,3.496108,-9.058785
23.290463,1.03508,3.623305,-8.688269,-0.767519,3.526635,-9.161889
23.323787,1.701141,4.041856,-9.158897,-0.729809,3.49521,-9.165182
23.357154,1.909444,3.440291,-7.540059,-0.790264,3.484735,-9.131063
23.390477,2.259908,4.902303,-7.595277,-0.832913,3.431013,-9.150367
23.424281,-1.728526,6.122342,-3.541749,-0.714096,3.535764,-9.227583
23.457222,-3.248449,28.023485,-15.922907,-0.567596,3.596219,-9.313927
23.4905,-3.124545,14.046086,-7.694191,-0.608299,3.659668,-9.431247
23.523987,1.238894,0.730557,-6.426117,-0.621318,3.863931,-9.79862
23.557181,1.356214,3.222112,-10.28077,-0.548591,4.54316,-10.774143
23.59047,1.489696,3.278827,-9.808197,-3.498502,2.026315,-12.269375
23.62377,1.432682,3.127687,-9.177452,0.205011,3.480396,-13.010556
23.657174,1.430437,3.184252,-9.604982,1.452434,2.407755,-13.753534
23.689824,1.37881,2.98418,-9.422717,-0.497413,4.342189,-13.351293
23.723808,1.351725,3.018747,-9.317967,-7.092627,9.050405,-25.04993
23.756354,1.408888,3.049424,-9.335625,-7.879749,-5.468701,-13.103934
23.790473,1.454829,3.081747,-9.744,-1.873829,-4.997775,-9.595854
23.823807,1.33706,2.997947,-9.41748,-2.626832,-0.32682,-9.311981
23.857144,1.371328,3.128884,-9.354181,-3.318632,1.664628,-9.91594
23.890473,1.368485,3.073816,-9.414786,-2.87943,3.366517,-11.952132
23.923231,1.385694,3.013809,-9.349841,-6.236669,8.267474,-16.27367
23.956657,1.339604,3.003633,-9.375879,-6.169629,14.72337,-6.959145
23.989991,1.407093,3.290798,-9.770787,10.911964,55.170811,8.707274
24.023336,1.553593,2.792188,-10.053612,19.223881,61.278936,-17.876197
24.056652,2.054598,2.786052,-10.501343,-0.812561,-3.768009,-5.061972
24.089992,0.613985,0.109838,-9.222046,1.248471,1.425349,-12.123922
24.123339,2.323656,4.750266,-10.80048,1.273761,8.234851,-10.086234
24.156652,2.926567,5.375624,-10.332995,-0.257685,3.446576,-9.339815
24.190004,1.795416,1.413677,-13.774933,-0.185258,3.299178,-9.250777
24.223334,4.527298,0.558617,-12.899372,-0.12989,3.341826,-9.222644
24.256652,1.855722,-0.299136,-7.132282,-0.13842,3.438346,-9.241799
24.289932,3.627944,0.643764,-8.706975,-0.074223,3.347662,-9.224889
24.323323,3.391059,2.061481,-9.099488,-0.14231,3.334643,-9.193314
24.356649,2.386506,2.045918,-8.084011,-0.178973,3.404377,-9.12373
24.38999,0.43606,3.315489,-10.210886,-0.054021,3.401085,-9.171766
24.423339,0.388922,4.716147,-11.365681,-0.161165,3.319829,-9.097842
24.456672,-0.295096,4.613642,-9.130464,-0.097118,3.370408,-9.210374
24.489982,1.081021,4.878809,-9.209326,-0.055518,3.374748,-9.240153
24.523272,1.934883,5.233612,-10.196521,-0.019005,3.274786,-9.242697
24.556612,0.020651,4.617383,-9.027959,-0.078563,3.269549,-9.23701
24.589983,-0.311557,4.657337,-10.576464,-0.031275,3.200863,-9.294473
24.623833,-0.241823,4.267966,-9.824209,0.065843,3.181259,-9.308689
24.657138,0.25978,3.298879,-8.576935,0.101458,3.234383,-9.346698
24.690477,0.93467,2.364059,-7.274293,-0.011672,3.223608,-9.324102
24.723803,1.824447,4.058017,-10.090424,0.187054,3.34018,-9.415085
24.757128,2.788447,5.756016,-9.427057,0.004489,3.300674,-9.507415
24.790481,-2.203642,13.736923,0.313203,0.365278,3.523792,-9.528814
24.823802,0.291804,21.985542,3.410363,0.764975,3.704561,-9.602438
24.857137,4.615737,11.499312,-4.206912,0.74193,3.793149,-9.760611
24.890505,-1.9907,7.163857,-12.547112,-0.892919,3.550728,-10.918249
24.92367,1.829235,3.573025,-10.509723,-2.069412,0.353157,-11.426586
24.95688,1.679443,2.927764,-9.398625,0.615481,5.088908,-13.517696
24.990472,1.503762,3.01351,-9.430947,-2.845311,2.088716,-11.605708
25.02381,1.248321,2.859228,-9.171317,-0.438753,3.673435,-10.436249
25.057139,1.364145,3.055859,-9.401168,-6.819678,10.28885,-18.302081
25.090473,1.329578,2.863717,-9.258858,-10.986935,-2.385309,-11.924448
25.123809,1.497477,2.791589,-9.295072,-2.539142,-0.693745,-9.966071
25.157154,1.431335,2.939436,-9.371539,-1.059472,-0.905938,-9.667234
25.190477,1.546261,2.787998,-9.267986,-0.219377,1.051541,-11.928488
25.223806,1.503014,3.008272,-9.353881,-0.424238,2.974303,-12.910296
25.257015,1.44585,2.969215,-9.33368,0.785775,3.405425,-12.454932
25.290482,1.470841,3.067381,-9.329789,-0.170144,6.291139,-15.638586
25.323807,1.492389,2.96712,-9.42556,-4.605262,7.582408,-11.138074
25.357143,1.600132,3.078305,-9.678307,12.514789,56.889161,13.538646
25.390494,1.444653,2.688485,-9.815979,6.602696,36.008732,-8.995337
25.423833,1.787485,2.114604,-10.274934,-0.893219,-3.172281,-5.601285
25.45714,2.424665,4.843793,-10.497752,0.560712,1.404998,-9.416731
25.490472,3.497455,6.404868,-11.552435,0.32263,5.277308,-8.246075
25.523788,1.243383,4.629205,-9.45085,-0.416606,3.079951,-8.90181
25.557137,1.806789,-0.820642,-14.14051,-0.312155,3.347962,-9.258858
25.590471,5.063019,0.786673,-13.934302,-0.290607,3.401384,-9.258409
25.623804,3.717729,-0.520907,-6.268094,-0.319637,3.423681,-9.169072
25.657139,4.872674,0.963701,-7.951577,-0.267262,3.359783,-9.247186
25.690538,3.71758,2.774231,-8.635595,-0.216982,3.347064,-9.320661
25.723798,0.423041,3.647846,-7.453715,-0.359442,3.372204,-9.184037
25.757132,-1.681987,4.925498,-8.148956,-0.399247,3.39046,-9.137198
25.790524,0.228056,6.227092,-10.81275,-0.435012,3.379087,-9.147673
25.823797,0.507439,5.672066,-8.031636,-0.436957,3.401833,-9.128369
25.857129,0.558019,5.143677,-8.25625,-0.35196,3.429966,-9.192267
25.890452,1.648766,5.371434,-10.507479,-0.492924,3.29828,-9.176255
25.923798,0.707661,4.789622,-9.325599,-0.443392,3.313693,-9.15321
25.957124,0.297789,5.021718,-9.964574,-0.464192,3.358736,-9.129417
25.990468,0.422442,4.797703,-9.952453,-0.359891,3.316387,-9.118942
26.023805,-0.118517,3.268202,-8.291267,-0.433815,3.324318,-9.099788
26.057133,-0.003442,2.537495,-8.149555,-0.362136,3.278827,-9.177752
26.090464,0.397901,2.48961,-8.80125,-0.289858,3.303967,-9.278312
26.123803,1.469793,4.718242,-10.629737,-0.227607,3.306361,-9.385306
26.157131,1.989802,4.155136,-7.832312,-0.245564,3.384175,-9.356874
26.190528,-0.480653,7.501152,0.337744,0.012271,3.567338,-9.541683
26.223806,6.774635,41.117692,-39.304019,0.317393,3.684209,-9.812986
26.257137,-2.199751,24.264903,-11.418355,0.1468,3.730898,-10.162103
26.29077,1.888644,2.956346,-8.437917,-1.136089,3.237974,-11.795456
26.323795,1.646372,3.152378,-9.641345,-3.992923,0.489033,-13.216764
26.357133,1.406344,2.881525,-9.304649,0.886934,7.209947,-15.482807
26.390704,1.424152,3.09731,-9.277713,-0.4193,1.367138,-13.31508
26.423803,1.410385,2.998096,-9.427356,-3.149086,5.681194,-12.222537
26.457135,1.450639,2.830796,-9.87823,-9.107569,4.06116,-16.584778
26.490495,1.580379,2.98837,-9.600194,-15.151797,-4.620675,-11.506345
26.523805,1.504809,3.03027,-9.268435,-0.823036,-2.650476,-6.974409
26.557146,1.542669,2.970412,-9.286991,-0.987195,0.076019,-8.667619
26.590456,1.503313,3.032814,-9.294772,-4.776902,2.754328,-11.11039
26.623825,1.541173,2.940185,-9.720357,-3.06349,4.229508,-12.893985
26.657148,1.533242,2.985078,-9.531657,-4.190751,6.075803,-14.684612
26.690539,1.528752,3.235879,-9.460577,-10.176169,17.148034,-18.809221
26.723799,1.757407,3.414104,-9.4507,19.936331,52.210574,22.459162
26.757178,1.815768,2.907114,-9.716765,15.203723,30.947658,-16.322753
26.790493,1.762944,3.273888,-10.484733,-0.750609,-4.010581,-3.023386
26.823799,0.984651,3.125443,-9.32934,0.207405,1.201483,-11.834512
26.857137,1.425648,2.678758,-9.276366,2.026016,6.745904,-8.009639
26.890493,2.027063,4.959317,-9.238058,-0.993928,4.602269,-9.269034
26.923845,2.259608,4.792465,-9.054146,0.671448,3.469771,-9.556797
26.957129,0.637778,3.358287,-10.1844,0.313801,3.582153,-9.03574
26.990489,2.710333,4.073281,-14.784274,0.273847,3.517657,-9.11116
27.023824,4.429431,0.244068,-9.586277,0.42319,3.427871,-9.332931
27.057125,4.376009,-0.900252,-6.018789,0.288063,3.492517,-9.104127
27.090424,6.463677,0.765873,-9.624136,0.254543,3.493714,-9.113106
27.123764,4.540915,1.850934,-9.930156,0.223118,3.499999,-9.087816
27.157147,3.278228,2.469558,-9.650623,0.321283,3.493564,-9.203191
27.190468,3.136367,4.334558,-10.811254,0.302279,3.529628,-9.058187
27.2238,1.737504,6.509169,-10.183053,0.403886,3.511521,-9.13241
27.257132,-0.312903,8.749623,-8.771471,0.236885,3.454657,-9.192566
27.290474,0.823635,9.365105,-5.451792,0.304823,3.538756,-9.16159
27.323829,-6.245199,10.90493,4.754605,0.244068,3.429367,-9.120139
27.357133,1.583522,39.856052,-32.74876,0.199624,3.451664,-9.139144
27.390472,0.3144,-4.787826,-6.159154,0.121211,3.385223,-9.131063
27.4238,1.038971,7.220721,-10.786264,0.275044,3.448522,-9.164284
27.457079,1.017123,3.42847,-9.066118,0.394908,3.56659,-9.141089
27.48992,1.543268,3.465431,-9.314825,0.447133,3.451664,-9.312131
27.523881,1.576189,3.050322,-11.523854,0.25978,3.195775,-9.063873
27.557147,1.319851,3.107037,-9.680253,0.076168,2.98822,-9.140191
27.590472,1.446449,2.713326,-9.799518,0.054919,3.42817,-9.295969
27.623842,1.229915,2.862969,-9.416582,0.238381,3.208494,-9.160842
27.657137,1.568857,2.264996,-8.303388,0.155928,2.763007,-9.078389
27.690509,1.353221,3.087882,-9.410446,0.220125,3.310551,-9.364805
27.7231,1.658193,2.571614,-8.686623,0.248407,3.431313,-9.255416
27.757207,1.49209,3.193829,-9.344454,0.10909,2.948415,-9.029904
27.790501,1.384646,3.061994,-9.362112,0.267562,3.09716,-9.27053
27.823818,0.781585,3.591131,-10.183053,0.30168,3.387318,-9.189124
27.857253,1.644277,3.133972,-9.178051,0.154581,3.178416,-9.357173
27.890427,1.262687,3.253387,-9.396829,0.581213,3.560604,-9.486465
27.923831,1.344841,3.284513,-9.449204,0.260528,3.24381,-9.202443
27.956512,1.815618,2.760912,-8.878615,-0.003591,2.709884,-8.997581
27.990495,1.356513,3.318482,-9.55545,0.313502,3.05541,-9.401468
28.023876,1.05184,2.961434,-8.820703,0.32278,3.605198,-9.362411
28.057161,1.591602,2.981486,-9.075845,0.307367,3.206848,-9.389796
28.090489,1.115439,3.024733,-9.319613,0.140964,3.224207,-9.247036
28.123822,1.470541,2.965175,-9.147823,0.285818,3.138462,-9.167277
28.157141,1.578733,3.112573,-9.409249,0.297939,2.944225,-9.213067
28.190491,1.422805,3.102098,-9.415534,0.40673,2.926118,-9.24539
28.223816,1.509448,3.274337,-8.207167,0.003292,3.244858,-9.282202
28.257154,1.361452,2.985526,-9.080484,0.352259,3.098806,-9.34176
28.290505,1.419363,3.108832,-9.20364,0.328766,3.190986,-9.204089
28.323827,1.557035,3.014856,-9.139593,0.312305,3.219718,-9.274421
28.357179,1.491192,2.980139,-9.331585,0.241823,3.098507,-9.179996
28.390489,1.502714,3.056008,-9.24539,0.260678,3.200414,-9.185383
28.423824,1.526358,3.105839,-9.361363,0.286566,3.190986,-9.223093
28.457152,1.520971,3.069476,-9.289684,0.321583,3.255632,-9.269183
28.490496,1.476228,3.080101,-9.271428,0.280431,3.193829,-9.20783
28.523822,1.474432,3.09297,-9.33772,0.352708,3.188442,-9.295521
28.557175,1.534588,3.013809,-9.300908,0.272051,3.20176,-9.197355
28.590487,1.515733,3.070224,-9.266639,0.407927,3.186946,-9.313627
28.623818,1.52561,3.047479,-9.271727,0.277588,3.166894,-9.247485
28.657126,1.493736,3.062144,-9.302255,0.281179,3.182905,-9.273074
28.690479,1.502864,3.042241,-9.235364,0.285668,3.201312,-9.254219
28.723817,1.480717,3.079502,-9.196607,0.263671,3.186198,-9.248084
28.757182,1.493287,2.892149,-9.196008,0.359891,3.132775,-9.288338
28.79049,1.490444,3.048975,-9.301656,0.326521,3.08893,-9.261552
28.823816,1.535486,3.054512,-9.314825,0.314549,3.156119,-9.27472
28.857116,1.506605,3.001239,-9.335625,0.230001,3.039398,-9.223393
28.890474,1.465603,3.059749,-9.238956,0.325473,3.282119,-9.357473
28.923856,1.439565,2.97131,-9.263647,0.271153,3.184252,-9.229229
28.957431,1.445401,3.048676,-9.292079,0.275044,3.228996,-9.212319
28.990525,1.455427,2.995702,-9.297316,0.278336,3.19772,-9.264993
29.023812,1.479819,3.042091,-9.331435,0.045192,3.208943,-8.930841
29.057367,1.593099,3.002137,-9.362561,0.172089,3.074714,-9.343556
29.090469,1.336461,2.977895,-9.283399,0.676685,3.799734,-9.589719
29.12381,1.486852,2.998845,-9.3042,0.123904,3.152378,-8.786735