time_tick,acc_X_value,acc_Y_value,acc_Z_value,acc_X_value,acc_Y_value,acc_Z_value
0.026582,1.583222,2.76181,-9.397727,0.444589,2.957394,-9.399073
0.059894,1.502415,2.74101,-9.364356,0.314101,2.98837,-9.263647
0.093179,1.578135,2.720658,-9.378572,0.407478,3.02997,-9.318566
0.126523,1.598187,2.77872,-9.391442,0.302129,2.9128,-9.256464
0.15987,1.536234,2.698811,-9.379171,0.351811,3.03431,-9.300159
0.193144,1.538928,2.763905,-9.368846,0.358395,2.993308,-9.290732
0.226552,1.491641,2.691029,-9.338169,0.372162,2.961584,-9.307791
0.259917,1.543417,2.726794,-9.360166,0.279234,2.904869,-9.294772
0.293186,1.572747,2.796228,-9.383211,0.350164,3.004232,-9.322007
0.326616,1.560776,2.702402,-9.359717,0.358694,2.992859,-9.273673
0.359883,1.532942,2.867159,-9.409848,0.453867,3.00917,-9.350589
0.393179,1.624225,2.840971,-9.409698,0.36468,2.972208,-9.293426
0.426499,1.617341,2.713176,-9.370941,0.362286,3.048227,-9.284746
0.459951,1.630061,2.697763,-9.30435,0.342533,2.906216,-9.315124
0.493968,1.641284,2.771537,-9.403263,0.368122,3.258625,-9.254967
0.526557,1.664628,2.631022,-9.321858,0.354654,3.10569,-9.210074
0.55991,1.646222,2.915643,-9.48871,0.563705,3.161357,-9.45923
0.59373,1.541921,2.716917,-9.375729,0.287763,2.88751,-9.280856
0.626577,1.685129,2.777373,-9.411643,0.126598,2.84591,-9.111909
0.659898,1.642631,2.740411,-9.371539,0.413015,3.206699,-9.19092
0.693476,1.582773,2.791589,-9.468358,0.254692,3.215528,-9.219053
0.726586,1.594745,2.748492,-9.401917,0.368271,3.393902,-9.374382
0.759914,1.551049,2.725746,-9.348494,0.380392,3.236927,-9.37109
0.793175,1.499273,2.720509,-9.326646,0.160717,2.976099,-9.185234
0.826633,1.496579,2.767347,-9.307791,0.05043,3.068279,-9.163984
0.859957,1.429988,2.765551,-9.263347,0.316644,3.239171,-9.359268
0.893228,1.025503,2.423019,-8.939071,0.245115,3.171982,-9.247485
0.926589,1.122771,3.204753,-9.96652,0.100111,3.071272,-9.257661
0.959933,1.569755,2.735772,-9.381116,0.483197,3.108533,-9.377824
0.993288,1.504061,2.736371,-9.466562,0.153983,3.367266,-9.348345
1.026594,1.625571,2.420774,-9.225637,0.000449,2.805805,-9.121635
1.059952,1.903009,2.670378,-9.283998,0.51986,2.940783,-9.261701
1.093273,1.631108,2.680255,-9.42137,0.332357,3.072469,-9.277114
1.126603,1.667621,2.579545,-9.277713,0.203514,2.836482,-9.101134
1.159965,1.669117,2.692825,-9.398924,0.363034,3.196673,-9.322157
1.193279,1.668369,2.743703,-9.451897,0.420946,3.311299,-9.281903
1.226612,1.709072,2.668583,-9.44666,0.601714,3.213133,-9.573856
1.259941,1.751271,2.546324,-9.242098,0.073325,3.239321,-9.158747
1.29329,1.040767,2.765252,-9.52193,0.046539,3.418443,-9.034693
1.32664,-0.546795,-0.224614,-9.201994,0.088888,3.204454,-9.259008
1.359961,-1.047201,-0.535572,-11.446788,0.213241,3.284064,-9.291779
1.39335,-0.926589,-1.356962,-11.714648,0.045641,3.131279,-9.19945
1.426584,1.817264,-1.869789,-11.972932,0.194386,3.174226,-9.185832
1.459851,4.193444,-2.002821,-11.723926,0.341186,3.261767,-9.294323
1.4933,4.457115,-1.032985,-10.701266,0.332656,3.194278,-9.193464
1.526573,3.891166,-0.645111,-10.278974,0.447881,3.230791,-9.213367
1.559896,3.616271,-0.680426,-9.250927,0.448779,3.181708,-9.293126
1.593224,4.022103,0.323827,-11.087644,0.618624,3.103894,-9.355527
1.626564,4.351168,0.91357,-11.268862,0.74178,3.18934,-9.315573
1.659868,2.944973,0.862392,-9.342209,0.455513,3.07621,-9.220549
1.693226,-0.096071,1.438218,-7.359141,0.613686,3.001538,-9.29567
1.726601,0.610693,3.643955,-9.743402,0.703621,3.081298,-9.296119
1.759924,4.695047,5.840863,-11.293703,0.651396,2.966073,-9.187927
1.793223,4.284876,7.140363,-9.520284,0.562957,2.844263,-9.272775
1.826527,1.812775,7.802982,-5.467654,0.775001,3.100153,-9.31243
1.859855,0.55338,7.453416,1.292017,0.851917,3.021441,-9.377525
1.893213,3.449868,13.67946,-2.659754,0.6915,3.069925,-9.56398
1.926569,-0.118966,-2.38875,-7.6276,0.910428,3.112723,-9.753428
1.959896,9.681001,18.779741,-17.760074,0.850271,3.281221,-9.929258
1.993197,-1.574244,2.992111,-9.441722,1.576189,3.494462,-10.028472
2.026554,0.690453,3.359484,-9.505769,-1.628714,1.134144,-11.655539
2.059888,1.462012,2.774231,-9.41733,-1.272564,3.36981,-12.082471
2.09327,1.400658,2.68654,-9.40072,-0.036064,2.21696,-14.592731
2.126567,1.537881,2.554555,-9.106222,-2.395484,0.931677,-11.962158
2.159894,1.569755,2.830646,-9.460427,-3.578113,5.249624,-23.02975
2.19324,1.571999,2.466415,-9.199899,-6.762065,-5.521825,-12.249173
2.226569,1.624075,2.630573,-9.310335,0.35196,-3.761575,-10.013956
2.260086,1.533391,2.570567,-9.24973,0.202766,-2.416734,-9.166229
2.293234,1.659091,2.798922,-9.383211,-1.021163,0.84668,-11.292356
2.326562,1.741694,2.702252,-9.398924,1.722241,2.727692,-11.874467
2.359891,1.655799,2.850249,-9.385306,2.748043,2.835883,-10.926778
2.393243,1.730471,2.759266,-9.369295,-0.667856,4.076573,-11.179226
2.426546,1.711317,2.843216,-9.485567,-1.214652,8.329725,-17.293637
2.459918,1.620633,2.724699,-9.447857,2.25901,23.589564,-4.631898
2.493254,1.74753,2.562935,-9.526869,17.963738,34.522029,3.211637
2.526584,2.164286,2.454444,-9.741307,10.584994,16.071652,-23.788889
2.559865,-3.087882,3.886527,-9.757019,-4.361194,-2.035294,-11.489885
2.59328,3.003484,2.185984,-10.326112,2.297468,3.539654,-9.968166
2.626582,2.55216,1.963764,-10.311895,-0.803882,4.071485,-9.491852
2.659956,3.977958,0.798794,-11.682924,-0.409872,3.786415,-9.138695
2.693192,3.309653,0.405083,-14.013014,-0.140964,3.490721,-9.126574
2.726582,4.986402,-1.861858,-11.851272,-0.179123,3.156419,-9.073301
2.759909,5.442664,-1.589358,-10.358883,-0.058061,3.475457,-9.402216
2.793313,3.258924,-0.945743,-8.280642,0.865684,3.307109,-9.521631
2.826666,2.555602,1.267625,-11.401296,0.26831,3.261318,-9.258559
2.859935,2.465368,1.115738,-9.300159,0.238681,3.269549,-9.257212
2.893291,2.817328,1.999679,-10.275981,0.133033,3.157167,-9.283549
2.926679,1.942216,2.807601,-9.29567,0.196032,3.166145,-9.268286
2.959968,2.324554,3.000042,-9.041427,0.197529,3.032365,-9.301357
2.993329,2.630873,3.020094,-8.779552,0.277438,3.004681,-9.30839
3.026633,2.867608,3.205053,-9.139892,0.089636,2.835135,-9.236412
3.060296,2.041728,3.929773,-8.992045,0.164009,3.042391,-9.297765
3.093319,3.420389,7.027382,-14.327564,0.193937,3.030868,-9.279658
3.126649,1.156441,5.00421,-8.648614,0.187353,2.92133,-9.231623
3.160034,-0.568643,5.327588,-5.410191,0.206956,2.950959,-9.30435
3.193311,0.340288,6.191028,-4.565756,0.077814,3.008123,-9.229827
3.22667,2.25048,10.656673,-10.05002,0.243768,2.986724,-9.280556
3.259983,1.12756,7.764075,-5.271023,0.310509,2.996151,-9.359568
3.293397,-0.971632,11.767921,5.247978,0.244816,2.919833,-9.369893
3.326715,14.730852,-5.979882,-29.726571,0.265916,3.017999,-9.650474
3.36002,-2.67397,-5.4063,-4.391123,0.31006,3.128286,-10.232435
3.393349,0.062401,4.564409,-11.893621,0.311557,3.329855,-11.477614
3.426667,1.444204,2.787399,-9.24958,-1.286031,1.86515,-13.21422
3.460093,1.490593,2.808499,-9.296418,0.185108,-1.634849,-14.692094
3.493358,1.670614,2.930907,-9.494546,-0.880948,1.209564,-13.396186
3.526768,1.589807,2.916541,-9.327245,-3.23124,3.292893,-12.452987
3.560069,1.606267,2.896938,-9.339366,-7.127494,3.616421,-16.464615
3.593434,1.604921,2.833489,-9.357024,-2.845461,-4.268565,-8.694106
3.6267,1.659989,2.863119,-9.366302,-1.118731,-1.680041,-7.68626
3.660001,1.663431,2.919085,-9.198103,-2.116251,-0.663966,-7.001494
3.693445,1.638141,2.85848,-9.390693,-1.125165,2.452049,-9.727839
3.726747,1.633951,2.762708,-9.292677,-0.64541,4.026143,-10.531272
3.760115,1.641583,2.90442,-9.378123,-0.203814,3.5205,-11.309864
3.79337,1.597289,2.810145,-9.506966,-1.283787,4.589699,-14.799388
3.826685,1.641583,2.817926,-9.297316,-4.419405,14.674287,-8.755758
3.860078,1.687673,2.794881,-9.362112,14.963247,30.207524,-4.159026
3.893409,1.695305,2.829449,-9.428104,6.252082,28.83425,-2.048462
3.926822,1.784193,2.704796,-9.455489,-2.370195,2.086023,-13.068917
3.960069,1.839261,2.768993,-9.51355,0.522404,-0.767219,-6.611076
3.993347,1.091047,2.647333,-10.026077,0.245564,3.464683,-8.626168
4.026739,0.587498,2.201397,-9.587624,-0.199773,3.498054,-9.249281
4.06008,1.473534,2.575654,-10.208343,0.032173,3.217772,-9.241948
4.093453,0.483496,1.662982,-11.86489,0.027085,3.505386,-9.177303
4.126724,-0.671598,1.154495,-13.523083,-0.122258,3.13068,-9.340862
4.160089,4.736499,-0.129591,-13.265698,-0.086943,3.111077,-9.318266
4.193467,5.588865,-1.767283,-7.763476,-0.200671,3.381482,-9.265742
4.226731,6.801272,-1.034781,-8.459316,-0.364979,3.269249,-9.039332
4.260044,6.088972,0.869575,-9.877033,-0.306918,3.262067,-9.103978
4.293437,4.109046,1.916328,-10.032961,-0.271153,3.277629,-9.195858
4.326736,2.36391,2.839774,-10.926778,-0.146052,3.252639,-9.277114
4.360142,1.959275,2.949762,-10.525586,-0.294647,3.250544,-9.156203
4.393429,0.387276,3.405275,-10.448071,-0.225961,3.213582,-9.213666
4.426823,0.921352,3.282568,-10.00393,-0.229852,3.287506,-9.181642
4.460081,0.788618,2.568023,-8.166913,-0.28492,3.323271,-9.115799
4.493395,2.139296,3.080999,-9.650474,-0.237184,3.276582,-9.242996
4.526841,2.538393,2.911752,-8.31925,-0.121809,3.329406,-9.155305
4.560086,3.127538,3.44927,-7.901148,-0.241673,3.313095,-9.159495
4.593492,1.380307,4.356854,-7.613085,-0.111484,3.19772,-9.285046
4.626756,0.389371,5.773375,-8.147759,0.0208,3.23124,-9.270829
4.660173,1.181581,8.825193,-10.759328,-0.236137,3.187694,-9.219053
4.69346,3.40303,10.620759,-12.337612,0.055667,3.35724,-9.472548
4.726828,-3.278228,14.5848,8.254155,0.132883,3.384325,-9.609023
4.760097,-4.088545,2.863119,3.385073,0.069285,3.584098,-9.540486
4.7934,-2.790841,-10.193827,-9.234167,-0.550536,3.282568,-9.910852
4.826788,1.30324,2.337124,-11.036317,-0.945145,3.556863,-11.099317
4.860076,0.361986,2.320812,-8.739597,-0.484245,-0.06719,-10.993968
4.893446,1.199388,2.894394,-9.105175,1.525011,5.9305,-13.701308
4.926774,1.551648,3.13083,-9.385606,2.519538,3.505236,-12.269076
4.960136,1.445551,2.895292,-9.122683,-1.527555,3.614027,-11.458759
4.993451,1.600282,3.086086,-9.38381,0.20546,16.601239,-20.530114
5.026746,1.679443,3.047778,-9.291331,-6.745455,3.701418,-15.168108
5.060101,1.703835,3.02578,-9.351188,-3.573174,-1.065757,-5.494739
5.09358,1.625422,2.930907,-9.2623,-0.443392,0.203365,-7.201417
5.126872,1.63874,2.919534,-9.295221,-3.002885,2.240753,-8.741842
5.160082,1.66792,2.936743,-9.288487,-2.275171,4.056222,-9.222345
5.193455,1.678395,2.751934,-9.259756,0.573132,5.569262,-10.178414
5.226871,1.648317,3.051669,-9.319164,-0.291504,4.801294,-10.812002
5.260162,1.721193,2.909508,-9.393537,-0.735196,6.569475,-15.778203
5.293534,1.597289,3.171233,-9.416881,1.34095,17.25024,-14.979708
5.326859,1.792872,2.65706,-9.313777,8.026997,48.334672,-11.259734
5.36022,1.98651,2.892598,-9.682797,9.035291,10.01665,-22.66926
5.393497,1.045256,2.608277,-9.727989,-0.725469,-3.175573,-7.155327
5.426782,0.556073,2.793983,-9.268585,-0.286117,3.208644,-9.159196
5.460184,0.991684,2.11221,-9.983878,-0.455064,3.818738,-9.198253
5.4935,3.636324,5.126318,-10.662359,-0.709008,3.529927,-8.93937
5.526499,0.912373,2.594509,-11.091236,0.201719,3.020393,-9.351188
5.560212,1.929945,-0.036064,-12.582727,0.221472,2.954101,-9.393237
5.593538,6.829106,-0.706165,-14.225657,-0.064346,3.183055,-9.291779
5.62677,6.109772,-2.360468,-8.848687,0.000299,3.026379,-9.338618
5.660185,6.266598,-0.617277,-9.917736,0.088589,2.897985,-9.35044
5.693518,5.785645,0.663816,-9.568769,0.007333,3.001987,-9.251376
5.72731,3.020543,1.924109,-9.656459,0.032323,3.069177,-9.273074
5.760197,1.482213,3.226901,-11.238335,0.162363,2.983581,-9.352535
5.793524,0.364979,3.632583,-10.17153,0.106396,2.994655,-9.335924
5.827027,0.590042,4.042455,-10.210438,0.105199,3.030569,-9.299262
5.860123,1.167065,3.25234,-9.1366,0.156078,2.796228,-9.368247
5.893501,1.50466,3.156568,-8.431931,0.246612,2.948415,-9.371838
5.92678,3.606096,5.196651,-12.326389,0.186754,2.964427,-9.276516
5.960256,2.712129,3.773097,-7.722324,0.150092,2.902475,-9.341012
5.993526,3.130381,4.844241,-7.822435,0.168199,2.878981,-9.369444
6.026994,1.075035,6.983238,-8.41966,0.277139,2.892897,-9.353133
6.060208,-0.30602,8.011434,-7.767666,0.228056,2.902924,-9.453693
6.093468,0.11313,9.745048,-7.674588,0.331908,2.934947,-9.487363
6.126841,-1.722091,10.772197,-1.55928,0.390867,3.035657,-9.600493
6.160367,-0.065693,14.360036,8.501814,0.381141,3.095514,-9.738164
6.193616,25.115025,10.98903,-43.879951,0.640472,3.286458,-9.758665
6.226803,0.111933,-0.635085,-6.387808,0.682222,3.527084,-9.754475
6.260078,2.381867,4.386184,-10.127236,0.579268,3.480246,-10.36427
6.293618,1.088054,2.942429,-9.267837,-1.063512,-0.320535,-11.624264
6.326908,1.396767,2.790093,-9.253172,0.295096,2.593163,-12.808389
6.360233,1.697849,2.966971,-9.395332,2.233421,3.989481,-13.077297
6.393552,1.710868,2.951557,-9.367648,-2.104878,3.118858,-11.110091
6.426864,1.582175,2.868356,-9.374532,-2.038436,15.986206,-17.741817
6.460258,1.648467,2.869852,-9.319912,-8.910639,3.913612,-15.702633
6.493554,1.640386,2.941531,-9.34176,-2.980738,-1.888045,-6.574264
6.526133,1.589058,2.680105,-9.231174,-1.472187,0.640921,-7.565648
6.560268,1.661635,2.918486,-9.315124,-2.717366,1.536234,-7.512824
6.593569,1.660588,2.972657,-9.348943,-2.242549,2.7871,-8.194897
6.626896,1.716405,3.005279,-9.361962,0.291804,3.377142,-10.120801
6.660215,1.661486,2.906665,-9.318416,-1.410834,4.097074,-13.188781
6.693574,1.655799,2.878083,-9.341461,-8.205521,7.587945,-17.358582
6.726891,1.674804,3.019196,-9.401917,6.64699,34.813683,25.627252
6.760308,1.807388,2.545277,-9.061479,19.187518,47.860304,-9.76076
6.793564,1.88191,2.931655,-9.434838,11.491531,42.045029,-0.531831
6.826961,1.367437,2.628628,-9.399373,-0.244217,-4.864593,-5.738957
6.860277,-0.000299,2.612018,-9.508163,1.00994,3.343622,-10.998757
6.89365,1.438218,2.569968,-10.021139,-1.016674,4.42584,-9.77752
6.9269,2.093954,2.831544,-10.781774,-0.902197,3.909871,-9.020626
6.960222,-0.14231,0.176579,-11.263475,0.139617,3.300824,-9.237758
6.993622,0.680726,-0.478109,-11.737095,0.073175,3.256679,-9.406256
7.026927,5.185278,-1.17754,-12.196798,-0.200372,3.389263,-9.127771
7.060311,9.586127,-0.740733,-13.475048,-0.152636,3.129483,-9.250478
7.093608,6.251184,-0.411518,-8.857067,0.222968,3.15582,-9.35044
7.126948,3.995766,0.330112,-7.82064,-0.168348,2.687587,-9.156053
7.160233,2.595108,1.777908,-9.600643,-0.080658,3.296185,-9.259307
7.193543,0.770063,2.766,-10.007073,0.115674,3.227798,-9.357473
7.22684,0.828124,3.172281,-9.878978,-0.024392,3.0174,-9.275019
7.260262,1.21136,3.314442,-9.406256,0.028731,3.278078,-9.285195
7.29363,3.374897,2.869254,-8.450337,-0.000599,3.168091,-9.345651
7.326932,4.802042,5.681194,-13.305652,-0.097418,3.108383,-9.228481
7.360293,4.455918,5.196202,-11.336201,-0.178674,3.202509,-9.215761
7.393623,1.556436,3.693338,-6.465473,-0.123156,3.204903,-9.184186
7.42698,1.10212,3.168689,-5.314719,-0.021698,3.252639,-9.248084
7.460298,1.104365,4.190601,-6.396188,-0.248707,2.911004,-9.124479
7.493716,3.037901,8.527852,-12.152504,0.02918,3.300525,-9.247186
7.526944,2.132262,8.663578,-9.647181,-0.13408,3.23977,-9.269932
7.560236,1.848539,6.604641,-4.190451,-0.014515,3.30247,-9.14079
7.593641,-0.572534,9.780214,1.033135,0.193039,3.428021,-9.490954
7.626926,1.878169,11.14421,1.750074,0.211745,3.497455,-9.607825
7.660298,-5.860167,35.592425,-27.57291,0.291504,3.616421,-9.757768
7.693679,0.560712,5.515689,-11.103507,-0.208303,3.724164,-9.829447
7.726539,1.544465,3.451215,-9.525671,-1.83163,2.495595,-10.395247
7.760289,1.367437,3.279126,-9.59346,0.329963,-0.033221,-10.255779
7.793654,1.365193,3.15567,-9.5556,0.707512,5.116891,-13.529817
7.827056,1.315661,2.904719,-9.657357,0.294048,2.22983,-12.576891
7.860306,1.228868,2.778421,-9.342508,-1.899418,4.758646,-12.431438
7.893707,1.24892,2.85429,-9.263647,-5.641689,9.018083,-19.50087
7.926992,1.361601,2.94228,-9.438729,-4.931483,0.324127,-13.382718
7.960284,1.317756,2.868506,-9.331734,-1.215699,-2.071507,-7.842637
7.993682,1.284236,2.785603,-9.265143,-0.94709,-0.633289,-7.293597
8.027053,1.418765,3.001987,-9.365553,-1.618688,2.700606,-9.349392
8.060312,1.391679,2.995403,-9.358371,-1.169011,2.874342,-9.322007
8.093609,1.296806,2.86656,-9.29148,0.671897,3.70067,-10.798235
8.127076,1.322245,2.861472,-9.35044,-1.621381,6.348752,-15.567655
8.160413,1.468297,2.773782,-9.367499,-2.859078,14.219222,-22.836412
8.193694,1.354269,2.921928,-9.381416,1.861409,34.719857,7.471672
8.226372,1.528004,2.976249,-9.437532,2.244794,34.797223,13.116653
8.260284,1.481166,3.044037,-9.691326,2.122835,2.488263,-40.11269
8.29361,1.458719,2.801166,-9.764053,-2.261105,-2.729188,-11.379748
8.32703,1.426845,2.71168,-9.452795,2.765851,4.985953,-10.090424
8.36027,0.526145,3.256081,-9.646433,-1.266279,3.760378,-9.557545
8.393649,2.457885,4.479113,-10.377589,-0.1468,3.393603,-9.317668
8.427037,2.695967,3.487728,-10.409163,-0.036064,3.227798,-9.233269
8.460359,1.057826,0.049532,-13.606135,-0.064047,3.372802,-9.251226
8.49398,6.123988,2.507118,-17.586638,-0.08784,3.112274,-9.251077
8.52705,6.019687,-2.642096,-7.080206,-0.067938,3.200863,-9.274122
8.560332,6.221406,-1.625422,-7.213688,-0.215785,3.307408,-9.172664
8.593949,6.631876,0.575227,-10.429814,-0.208752,3.261618,-9.152462
8.62703,4.248513,1.389135,-10.145493,-0.189598,3.304416,-9.240751
8.660382,1.155992,3.844327,-11.774506,-0.049532,3.341677,-9.340114
8.693656,0.402689,4.065649,-11.115927,-0.057164,3.183504,-9.256763
8.726187,0.583907,4.211252,-10.524089,-0.215336,3.248299,-9.211721
8.760381,2.004617,3.970476,-10.568982,-0.28088,3.194278,-9.237758
8.793779,2.121787,2.853242,-8.249965,-0.225811,3.209542,-9.230276
8.826899,1.731967,3.259223,-8.869786,-0.125999,3.244708,-9.256164
8.860309,4.733955,5.183183,-12.439968,-0.127047,3.316088,-9.154856
8.893657,3.481294,3.680019,-7.502499,-0.185108,3.221663,-9.153509
8.927042,0.089187,3.987685,-4.723929,0.030527,3.360083,-9.273523
8.96049,0.898606,8.116334,-9.783656,0.03786,3.298879,-9.307043
8.993746,1.660438,9.332033,-9.322905,-0.166852,3.254285,-9.200797
9.027099,-1.12322,8.309822,-3.600409,-0.117619,3.355893,-9.261402
9.06035,-0.08799,13.566929,-1.090598,0.13827,3.441638,-9.45504
9.093703,1.406793,14.336842,-4.47597,-0.281179,3.476804,-9.282053
9.127115,7.774999,15.236046,-11.072381,0.063898,3.662212,-9.690129
9.160404,-1.093142,6.928169,-12.627171,0.09218,3.652784,-9.901425
9.193764,2.227884,5.165076,-12.252465,-0.848476,2.64045,-10.811553
9.227123,1.343045,3.345867,-9.584481,-0.534076,2.391444,-11.509488
9.260454,1.372824,3.060198,-9.604533,-0.110287,6.188484,-15.770122
9.293724,1.38704,2.867907,-9.366451,2.034994,0.805528,-14.173881
9.327111,1.307281,2.893197,-9.394435,-5.693166,5.04177,-13.800073
9.360412,1.399311,2.832891,-9.654963,-7.274144,11.354009,-21.926283
9.393733,1.291568,2.902026,-9.460277,-5.224484,-0.96415,-9.051303
9.426972,1.309525,2.849651,-9.344753,-0.379644,-2.555453,-7.164455
9.460323,1.383748,2.797575,-9.326946,-1.525311,-0.018107,-7.954121
9.493688,1.383,2.864016,-9.295072,-2.035593,2.611718,-9.585529
9.527083,1.395271,2.877933,-9.327095,0.594082,4.542262,-10.61582
9.560402,1.34963,2.862819,-9.283998,-0.164757,4.855465,-11.780192
9.593765,1.31162,2.794283,-9.341162,-2.134058,6.959445,-15.655346
9.627105,1.234704,2.869254,-9.398176,-2.262751,22.07847,8.457071
9.66051,1.488199,2.789793,-9.557994,16.568766,25.687858,-0.034268
9.693757,1.58846,2.88751,-9.5556,16.238504,71.261917,-12.247377
9.727076,1.45004,2.915045,-9.861021,-1.026401,-6.066226,-2.086322
9.760425,1.560626,2.829748,-9.663343,1.842404,2.929261,-12.281197
9.793742,0.598871,2.580593,-9.237309,-0.742828,3.354546,-9.397278
9.827107,2.118495,5.034737,-10.133222,-0.935867,4.064003,-8.554938
9.860422,2.523429,4.687715,-9.790689,0.078263,3.149834,-9.487213
9.893781,1.878169,4.40055,-8.859611,-0.185108,3.38642,-9.03589
9.927083,2.754777,1.984415,-13.643995,-0.02948,3.078604,-9.399822
9.960371,6.400977,-0.101757,-14.495912,-0.06719,3.165996,-9.259906
9.993775,6.436742,-1.697849,-8.908544,-0.330112,3.209392,-9.226386
10.027162,5.990955,0.455812,-10.089676,-0.07976,3.198319,-9.32096
10.060475,4.4004,1.832378,-10.568982,-0.332806,3.18081,-9.240751
10.093778,2.363311,2.689084,-9.52223,-0.203814,3.318781,-9.124179
10.127045,1.91124,3.825323,-10.475605,-0.14231,3.199665,-9.332482
10.160493,2.512206,4.367479,-10.315188,-0.245265,3.207896,-9.16144
10.193732,1.905703,4.101713,-8.99803,-0.147698,3.301722,-9.201844
10.227206,2.996301,3.4786,-9.546322,-0.240626,3.21433,-9.325
10.260432,3.823228,4.0655,-10.552821,-0.154581,3.181858,-9.246438
10.293855,3.277629,3.936507,-9.24135,-0.130339,3.261169,-9.233269
10.32712,3.173328,3.458398,-6.676919,-0.347621,3.226152,-9.157999
10.360528,2.21307,3.5624,-5.617746,-0.074522,3.293791,-9.240003
10.39376,2.218307,6.512162,-8.475926,-0.019753,3.294389,-9.297316
10.427101,1.858715,8.884152,-9.388748,-0.10894,3.245606,-9.275169
10.460509,1.696502,10.263561,-8.317305,-0.173436,3.303518,-9.349691
10.493769,1.388687,15.854072,-4.465495,0.038758,3.370258,-9.424513
10.527067,-2.516845,18.829572,14.588691,-0.144705,3.52903,-9.472997
10.560571,-8.28169,39.150186,-43.714895,-0.144555,3.599811,-9.42586
10.593765,1.396318,2.690131,-7.769462,0.060306,3.772349,-9.829746
10.627039,1.716704,2.343708,-9.229977,-0.987793,2.704647,-10.53651
10.660381,1.091795,3.04703,-9.478684,0.328017,-0.026786,-11.030331
10.693743,1.186968,2.910555,-9.38396,1.699196,8.852727,-15.567505
10.727028,1.610607,2.957992,-9.419126,2.187481,1.847193,-13.179503
10.760312,1.418765,2.774829,-9.327843,-2.484671,0.7545,-12.17929
10.793721,1.512591,2.848453,-9.374831,-4.279788,11.07283,-21.666952
10.827035,1.493137,2.839325,-9.372886,-13.10543,-2.499037,-15.05827
10.860373,1.527406,2.799969,-9.282651,-2.116849,-4.365534,-10.352598
10.893703,1.586066,3.007374,-9.379321,-1.42909,-0.069883,-9.394883
10.92709,1.537581,2.872396,-9.322456,-1.84809,3.156269,-8.73002
10.960353,1.529949,2.90008,-9.319314,-0.049532,3.105241,-8.640833
10.993739,1.585467,2.81239,-9.439776,1.007097,3.829662,-11.507692
11.027066,1.488199,2.843066,-9.357772,-6.15227,10.315637,-19.486804
11.060393,1.612253,2.953802,-9.406406,5.519281,18.182965,-8.661783
11.093781,1.558681,2.956196,-9.54288,18.030628,46.275435,-4.351617
11.127073,1.691265,2.758817,-9.810292,1.532194,23.263493,-24.402724
11.160895,2.210526,3.129184,-10.540849,-0.749562,-6.343664,-12.770679
11.193747,-0.637928,0.494869,-8.784789,2.458783,2.318418,-11.905144
11.227061,2.639552,4.662276,-10.676126,-0.003891,5.477381,-9.678008
11.260526,3.529329,4.095129,-10.283014,0.266065,3.479647,-9.370043
11.293779,1.057676,4.665119,-13.472055,0.13408,3.2691,-9.267238
11.327089,2.508016,4.311662,-16.796972,-0.02918,3.235879,-9.315872
11.360415,3.050621,0.064047,-7.60261,0.120762,3.295138,-9.238207
11.393778,5.658299,0.036064,-8.399758,0.232395,3.140108,-9.341012
11.427064,6.359676,1.019667,-9.147224,-0.306768,3.278527,-9.199749
11.460516,3.437448,2.804458,-9.254518,0.07976,3.290948,-9.251974
11.49376,0.885288,2.639851,-7.011071,0.23045,3.189789,-9.368846
11.527092,0.515819,4.495873,-10.833551,0.183612,3.248299,-9.397727
11.560413,1.598336,4.633694,-10.59502,-0.099812,3.446876,-9.120438
11.593782,2.185086,4.374812,-9.544227,-0.322929,3.455705,-9.03155
11.627116,3.104642,3.770404,-10.139656,-0.094574,3.525588,-9.125825
11.660318,4.263776,3.412458,-10.426672,-0.046389,3.515113,-9.172813
11.693725,3.122899,3.858244,-9.385456,-0.009128,3.524241,-9.191818
11.727101,2.400871,3.381931,-7.692695,-0.104301,3.584248,-9.025265
11.760429,1.636196,3.208494,-8.139678,-0.140814,3.536512,-9.059983
11.793754,1.093291,4.22457,-9.254069,-0.051776,3.643506,-9.171467
11.827063,1.727478,7.962202,-11.368375,-0.082004,3.579759,-9.189573
11.86046,2.211423,9.098441,-6.871903,0.18855,3.688699,-9.075845
11.893784,0.58256,9.898881,-3.663409,0.025739,3.786565,-9.160692
11.92712,0.169396,13.779871,-0.416905,0.130339,3.762473,-9.303751
11.960464,8.417266,5.567017,-20.068765,-0.030677,3.810957,-9.377076
11.993767,0.435461,-8.535334,-1.843751,0.099213,3.916754,-9.681749
12.02712,0.966843,5.480823,-11.147502,-0.074073,2.918636,-10.189039
12.060426,1.092244,3.009918,-9.151863,-1.01847,3.292594,-10.760226
12.093297,1.741096,2.889456,-9.58478,-0.423639,7.243018,-16.659899
12.127129,1.541322,2.95066,-9.76091,2.503227,2.322608,-14.317987
12.159533,1.362499,2.940484,-9.37558,-1.281093,1.850185,-12.609513
12.193765,1.353072,2.906365,-9.101883,-3.435203,9.457734,-24.004225
12.227089,1.528004,2.79982,-9.369594,-5.455084,-2.399674,-13.83045
12.260465,1.497776,2.97969,-9.291331,-0.466138,-0.704968,-10.387764
12.293779,1.533092,2.981336,-9.374233,-1.030741,-0.458656,-8.592947
12.327102,1.494035,2.936743,-9.339516,0.20531,2.082431,-8.492537
12.360313,1.533541,2.850399,-9.326347,0.957416,3.281371,-9.813136
12.393747,1.422805,2.844563,-9.073002,0.392364,4.298194,-11.443944
12.42701,1.522767,2.830197,-9.237609,-2.753131,6.769248,-16.561284
12.460341,1.62213,2.946021,-9.474494,-4.792016,12.747634,-18.056666
12.493669,1.585617,3.034011,-9.5348,11.908735,47.711708,5.175102
12.527182,1.876672,2.657958,-9.485118,13.988772,41.026559,16.991208
12.560342,1.392877,2.80401,-10.349157,-7.455212,17.744361,-4.958269
12.593678,1.347235,3.033861,-9.575353,4.448137,10.450614,-10.395247
12.627003,1.440463,3.690943,-9.361962,-1.452584,3.663858,-9.253321
12.659683,2.924322,5.545768,-10.075909,-0.448181,3.146093,-9.257212
12.693676,2.28819,4.15334,-9.361663,-0.418551,2.729936,-9.020327
12.727008,4.84484,4.510538,-15.441356,0.009577,3.192333,-9.277563
12.760312,5.739406,-0.879152,-10.585892,0.007931,3.207597,-9.35867
12.793673,3.242314,-1.061866,-6.558401,-0.194985,3.038799,-9.277264
12.827028,4.878659,0.929881,-9.71063,-0.143508,3.233934,-9.261851
12.860475,3.561652,3.092521,-11.232649,-0.114028,3.177219,-9.234616
12.893619,0.443242,2.599597,-7.655733,-0.232695,3.054512,-9.184934
12.927039,-0.280281,3.781777,-9.820618,-0.150541,3.165248,-9.271428
12.960348,1.20687,4.381097,-10.556711,-0.18855,3.259972,-9.227134
12.993673,2.014643,4.131642,-10.340477,-0.281179,3.010816,-9.139144
13.027004,3.857945,3.057205,-9.447259,-0.230749,3.2691,-9.250777
13.060346,2.997797,3.249197,-9.789342,-0.354055,3.131578,-9.260803
13.093835,3.289002,3.04703,-8.948948,-0.3352,3.259523,-9.208428
13.127048,2.103681,3.426674,-10.526633,-0.347621,3.379836,-9.242996
13.160343,1.435674,2.808499,-9.552009,-0.409423,3.282867,-9.150217
13.193641,0.877357,2.486766,-7.835005,-0.099812,3.460044,-9.191818
13.227032,2.114904,4.041407,-7.829169,-0.199474,3.358437,-9.185982
13.259924,3.280772,6.481784,-12.330429,-0.257386,3.335242,-9.167127
13.293643,1.322544,5.685085,-10.296033,-0.224315,3.416648,-9.168623
13.327198,-0.661272,5.614154,-5.967162,-0.212792,3.395548,-9.220101
13.36031,-0.006285,8.054681,-3.677176,-0.195434,3.398092,-9.291031
13.393654,-1.1943,14.89516,-4.092136,-0.022596,3.459595,-9.50113
13.42716,8.439713,4.946148,-19.215501,-0.074672,3.565243,-9.532256
13.460315,-2.25048,2.839625,-10.05017,-0.119415,3.775043,-9.61022
13.49363,1.413527,3.702615,-10.473211,-0.515221,3.4786,-10.328356
13.526959,1.105861,3.037153,-9.273074,-1.736756,2.50203,-11.3579
13.560156,1.711317,3.183504,-9.581638,1.686626,0.082902,-11.467139
13.593312,1.457373,2.97984,-9.351337,1.520971,3.782525,-13.988772
13.626504,1.536085,2.9755,-9.474344,-0.284621,0.902946,-11.649254
13.660321,1.611954,2.911004,-9.291031,-2.262452,7.575973,-12.666976
13.693639,1.569904,2.913249,-9.172963,-10.067828,14.180315,-23.237006
13.727176,1.656547,3.022488,-9.319763,-3.801679,-2.062978,-7.167299
13.759781,1.628415,2.99645,-9.211721,0.526893,-2.048462,-6.658513
13.793664,1.746782,3.086835,-9.349691,-2.315126,-0.074821,-6.864272
13.827366,1.733165,3.001239,-9.336523,-2.927016,3.379387,-9.422418
13.860466,1.67226,3.089678,-9.270979,-1.785091,4.554084,-10.600257
13.893674,1.639338,2.958291,-9.246587,-0.716191,4.277544,-10.693934
13.927114,1.670015,2.97984,-9.29163,-1.736157,5.548012,-15.453926
13.96031,1.780003,2.989567,-9.484969,-7.799839,13.841374,-17.148483
13.993687,1.558831,3.113022,-9.202293,18.061006,49.889462,7.402388
14.026989,1.932339,2.735772,-9.654664,14.093373,52.805853,0.958613
14.060355,1.934285,2.612616,-10.032512,0.175681,-4.255845,-9.302853
14.093649,1.42909,1.041665,-9.152013,2.617105,-0.086643,-13.152418
14.126978,3.322373,5.147119,-10.050769,1.55479,4.067894,-9.151115
14.16032,3.448821,5.384004,-8.871582,-0.484843,3.14744,-8.729721
14.19365,1.052588,4.210204,-9.966071,0.106396,3.421287,-9.143783
14.226983,0.687609,3.596668,-18.464294,-0.034268,3.198768,-9.106671
14.259628,4.050236,0.213989,-12.904908,-0.173137,3.270297,-9.106671
14.293667,4.268266,-2.139146,-6.174118,0.24317,3.253238,-9.395781
14.326985,7.000297,1.172752,-12.050148,0.224015,3.198768,-9.374981
14.360314,6.210781,2.159348,-9.016885,-0.069434,3.04673,-9.173113
14.39366,0.822288,2.884218,-7.707659,0.147698,3.195475,-9.315573
14.426963,0.358245,4.705672,-11.269012,0.133182,3.15178,-9.301057
14.460313,0.889927,4.94106,-10.907624,-0.094874,3.140706,-9.194212
14.493631,1.630061,4.484051,-10.198765,0.131237,3.395099,-9.265592
14.526984,2.373187,4.046794,-9.880624,0.123605,3.34856,-9.161141
14.56024,2.501282,3.287506,-8.226621,0.103254,3.301872,-9.185234
14.593437,1.710269,2.438731,-6.498844,-0.018107,3.209392,-9.087517
14.626984,2.37633,3.628393,-8.853176,0.249156,3.344969,-9.320212
14.660314,4.101264,7.077214,-13.059041,0.016461,3.206998,-9.024966
14.693651,2.483474,7.330409,-10.241114,0.704369,3.426973,-9.532854
14.727032,0.014216,6.953459,-6.305804,0.466587,3.19757,-9.308839
14.760302,-0.275642,6.964682,-2.763307,0.141413,3.106737,-9.215462
14.793646,0.642417,12.437274,-2.801166,0.436359,3.29424,-9.461774
14.826981,0.161165,13.416089,4.661976,0.403587,3.278527,-9.624585
14.859758,-3.186497,49.57611,-56.481832,0.706464,3.609837,-9.73158
14.892884,2.100388,-4.513979,-5.918678,0.763179,3.908225,-9.610669
14.92698,0.835756,8.597287,-11.133286,1.21121,3.686155,-10.143996
14.960302,1.596541,2.771687,-9.807299,-2.15426,-0.745072,-11.728865
14.993658,1.840908,2.782461,-9.909506,-1.049147,3.770404,-13.663
15.026971,1.61764,2.930009,-9.313029,2.91699,1.397665,-15.320445
15.060431,1.386442,2.754328,-9.011947,-2.253323,-0.565201,-13.750541
15.093649,1.522168,2.66978,-8.976482,-9.113555,17.150578,-30.714364
15.126976,1.758454,2.810295,-9.398475,-9.393237,-9.807599,-13.339023
15.160315,1.657296,2.935246,-9.356126,1.248172,-2.887959,-11.614837
15.193648,1.56347,2.752682,-9.258259,-0.939009,-1.784642,-9.046215
15.22698,1.619286,2.794732,-9.349991,-1.138633,2.23402,-9.789492
15.26031,1.66403,2.853541,-9.342808,1.045555,3.47426,-12.347638
15.293649,1.533092,2.689233,-9.197355,-2.584633,6.472357,-16.088412
15.326979,1.652956,3.029821,-9.301207,-5.201888,19.89069,-3.026678
15.360317,1.591153,2.696716,-9.44651,19.435177,41.366847,-10.151029
15.393643,1.668818,2.502329,-9.671873,17.889814,42.953811,20.972609
15.426979,2.130018,2.747145,-10.418292,-0.194536,-5.752275,-10.417094
15.460316,-1.156441,-1.862606,-9.066118,3.777736,0.773355,-10.228095
15.493627,3.226003,4.858906,-10.28047,2.396233,5.514941,-9.652718
15.526979,2.94198,5.236755,-10.56973,0.567446,3.861536,-9.363458
15.560315,1.866796,5.592606,-8.387188,0.597375,3.419491,-9.232371
15.593642,1.930244,0.04609,-15.692757,0.438155,3.188592,-9.316171
15.626977,5.429794,0.503997,-14.234486,0.195434,3.127538,-9.271129
15.660326,5.358714,-1.42924,-6.845716,0.442494,3.297831,-9.099638
15.693588,5.700199,0.631493,-9.309138,0.195733,3.403778,-9.030054
15.726984,4.830774,2.916391,-10.283164,0.079161,3.422484,-9.066118
15.760316,0.903544,3.65039,-7.608296,0.615332,3.584248,-9.205286
15.793031,0.376202,4.965752,-10.180509,0.488734,3.413505,-9.179547
15.827083,1.367737,5.45673,-10.74152,0.306469,3.265808,-9.113106
15.860318,0.898456,4.001003,-8.34035,0.407178,3.376693,-9.177901
15.893645,1.510646,3.186647,-8.563168,0.439651,3.3529,-9.17401
15.926958,2.087519,3.621509,-10.520049,0.383685,3.332399,-9.147374
15.960314,2.58149,3.622257,-10.274335,0.591539,3.339432,-9.241649
15.993644,3.205801,5.057782,-12.090252,0.565501,3.299627,-9.272326
16.026971,2.940933,4.197036,-8.201182,0.572235,3.324767,-9.198253
16.060313,1.790777,5.701546,-6.68889,0.496515,3.448671,-9.208428
16.093649,1.083265,7.952625,-6.286351,0.514173,3.416648,-9.218754
16.126979,1.629163,11.151841,-10.12963,0.535722,3.366218,-9.255566
16.160312,0.275792,10.695131,-4.116528,0.67908,3.480246,-9.362411
16.193641,0.013318,13.131468,3.479947,0.716341,3.685855,-9.398774
16.227004,10.519151,18.862942,-34.562732,0.785326,3.710098,-9.50936
16.260315,0.542306,-5.929751,-6.308049,0.931527,3.747808,-9.728887
16.293606,2.37648,4.466094,-10.819035,-0.693296,2.138847,-11.007735
16.326951,0.991085,3.133374,-9.31258,0.845183,4.795009,-12.062119
16.360304,1.43343,2.936593,-9.344454,2.574308,8.272412,-15.626914
16.393622,1.482662,3.226152,-9.669329,0.705866,-1.016225,-13.949117
16.426982,1.528752,2.970113,-9.556947,0.619522,5.618644,-13.197311
16.460311,1.373573,2.8501,-9.355677,-6.607035,17.779079,-29.339744
16.493566,1.428043,2.855187,-9.320661,-9.619498,-1.25311,-11.802938
16.526766,1.417119,2.957842,-9.358371,0.692847,-2.652421,-7.366773
16.56031,1.452734,2.87524,-9.378872,-0.554876,0.954423,-8.111097
16.593629,1.442408,2.910106,-9.334577,-0.861644,2.638654,-8.278547
16.62706,1.417268,2.916391,-9.358071,1.621681,5.118088,-11.495721
16.660316,1.402753,2.907562,-9.363758,-0.021549,4.793213,-11.825235
16.693893,1.319402,2.829449,-9.310485,-1.478323,5.521825,-15.264778
16.726963,1.329428,2.757171,-9.092156,-0.379345,22.731063,5.805248
16.76031,1.553743,2.653319,-9.188825,17.6863,33.234202,3.270297
16.793634,1.748877,2.741758,-9.692224,1.564068,45.891302,-8.42385
16.826983,1.413527,2.999443,-10.198466,-0.380243,-6.444523,-7.445186
16.86031,1.230514,1.895826,-9.377974,4.122514,0.703471,-10.22181
16.893667,1.678096,3.907926,-9.648079,0.86344,4.389028,-10.483237
16.926982,2.920581,6.36641,-10.239319,-0.1468,4.291011,-9.294323
16.960318,1.473384,6.029713,-7.985696,0.452071,3.153575,-9.220998
16.993645,2.223694,5.956238,-7.178821,0.17194,3.087284,-9.170569
17.026653,2.450553,4.793363,-14.583004,0.430972,3.504787,-9.298663
17.060307,7.104299,6.933107,-19.83203,0.632391,3.353798,-9.363608
17.093644,4.141219,-1.629163,-5.296911,0.455962,3.292594,-9.277563
17.126969,4.270959,1.283787,-7.648251,0.457159,3.411859,-9.030653
17.160311,6.362818,2.683697,-9.67696,0.465988,3.170635,-9.240602
17.193649,3.951921,3.54968,-9.026911,0.43187,3.243511,-9.191968
17.226975,1.575142,5.060027,-9.725894,0.420048,3.28571,-9.183139
17.26032,0.314849,5.35198,-8.824594,0.438155,3.177219,-9.254967
17.293649,1.584868,3.819487,-8.029242,0.495468,3.209542,-9.320212
17.326976,1.32449,4.078219,-9.026762,0.494271,3.195775,-9.276217
17.36031,2.193616,5.496236,-10.936206,0.442045,3.187544,-9.282801
17.39365,2.164136,4.914873,-9.190471,0.512228,3.215528,-9.297616
17.426203,2.015242,4.85756,-9.732927,0.340288,3.191884,-9.146027
17.460314,2.307045,4.391422,-8.698744,0.483496,3.167193,-9.309587
17.493653,1.95718,5.827845,-10.12155,0.493074,3.249646,-9.263497
17.526564,1.08536,5.942321,-8.128306,0.366925,3.220316,-9.173711
17.560311,0.797298,8.833274,-6.693679,0.598572,3.297532,-9.344304
17.59365,-0.495019,14.3542,-4.200328,0.484245,3.34018,-9.484669
17.626368,-0.561909,19.121825,10.899693,0.656035,3.542647,-9.649276
17.660316,9.909057,23.779761,-38.34795,0.727714,3.670592,-9.589868
17.693668,-1.37866,0.956069,-8.341846,0.801488,3.655478,-9.552607
17.726977,2.035743,3.652934,-9.962778,0.402988,3.391957,-10.396743
17.760313,1.33706,3.085488,-10.099552,-1.413378,0.094125,-10.994567
17.79371,1.274509,2.576253,-9.184635,0.390418,5.822906,-13.881029
17.826979,1.518726,2.835734,-9.34191,2.993757,4.83661,-13.890008
17.860312,1.45438,2.950061,-9.429601,-2.362862,0.463444,-11.996276
17.89364,1.376565,2.868955,-9.384857,-4.072234,11.91921,-20.439132
17.927011,1.436123,2.868805,-9.389496,-11.060559,1.207768,-18.591939
17.960318,1.406195,2.874192,-9.241649,-6.090169,-6.441381,-9.868054
17.993446,1.488199,2.66978,-9.270979,-0.480504,-1.256851,-9.028109
18.026999,1.464107,2.881375,-9.373335,-1.639338,1.372525,-8.64622
18.060319,1.534139,2.919235,-9.441722,-0.881846,3.25234,-9.665588
18.093644,1.42924,2.762858,-9.226984,0.696887,4.665269,-13.129971
18.126976,1.228868,2.692077,-8.977978,-3.758133,7.797146,-17.708148
18.160312,1.585617,2.812539,-9.508462,3.622556,21.146194,1.1946
18.193645,1.874128,2.559792,-9.522828,18.111585,31.529919,5.466158
18.226951,1.831031,2.296271,-9.224889,-1.514836,17.116609,-17.365765
18.260313,1.390482,2.600495,-10.102246,-1.314314,-5.261147,-1.145068
18.293651,0.69988,1.177241,-9.105324,2.566825,3.336738,-12.933341
18.32697,3.59188,5.763049,-10.334342,-0.347321,4.124758,-9.008505
18.360317,1.346188,4.118324,-9.29567,0.036363,3.144148,-9.247934
18.393652,1.100774,2.391145,-11.16486,0.183612,3.211038,-9.276965
18.426996,3.820384,6.122192,-18.713898,0.27669,3.099854,-9.388299
18.460316,5.130658,-2.198255,-6.7266,-0.094125,3.150882,-9.147524
18.493646,3.741972,0.799991,-8.117082,0.075869,3.223758,-9.152163
18.526979,4.574286,1.665077,-8.102118,0.327119,3.0804,-9.475541
18.559749,1.989952,3.498203,-9.646134,0.189298,3.204005,-9.238956
18.59289,0.464342,3.45331,-8.451684,0.251849,3.254584,-9.262599
18.626078,-0.059109,4.080314,-9.682198,0.341485,3.283765,-9.263048
18.660315,1.820706,4.859655,-11.770465,0.02529,3.350955,-9.095448
18.693648,2.406109,4.801444,-9.660649,-0.023943,3.224207,-9.167127
18.726985,3.087284,4.675145,-9.627578,0.147398,3.138462,-9.301806
18.760397,1.585467,4.107699,-8.527852,-0.038309,3.251442,-9.165481
18.79271,0.57822,4.439607,-9.323504,0.297939,3.227798,-9.38785
18.826984,0.835457,4.871925,-9.613362,0.18002,3.261618,-9.255416
18.860384,1.229766,3.576766,-8.004551,0.16341,3.210739,-9.234616
18.893647,0.981658,4.649406,-10.049571,0.322331,3.300076,-9.304649
18.926978,1.086109,5.195603,-9.821216,0.198576,3.320278,-9.196756
18.960353,0.99767,4.708815,-7.153681,0.203664,3.340031,-9.273523
18.99365,1.119629,5.363502,-4.676342,0.243319,3.430116,-9.319463
19.026978,1.421009,9.043223,-5.693764,0.554876,3.342874,-9.506816
19.060287,2.108918,17.889066,2.151117,0.106845,3.598314,-9.615906
19.093653,0.313203,24.868263,-31.872601,0.277438,3.676877,-9.44651
19.127068,-0.868079,-1.047052,-6.469364,0.271752,3.733891,-9.456686
19.160304,1.873679,2.680554,-9.104576,0.219825,2.316024,-10.110326
19.193642,1.372824,3.52484,-9.451748,-1.230065,1.061268,-11.654492
19.226961,1.718649,3.095364,-9.528066,0.934221,9.483472,-15.816811
19.260296,1.583671,3.027875,-9.343406,3.548483,2.876586,-14.778288
19.293645,1.60537,3.038799,-9.362112,0.076767,7.74492,-15.614344
19.326971,1.60522,2.92133,-9.324252,-8.584118,11.354308,-28.171033
19.361014,1.589956,2.963379,-9.339516,-8.971244,-6.386611,-11.204965
19.393418,1.537132,2.972208,-9.323055,1.6344,-3.52065,-10.211485
19.42698,1.507952,2.987472,-9.361363,-0.876309,-0.603061,-8.910789
19.460591,1.532942,2.981785,-9.402366,-0.428428,2.450403,-10.642008
19.493625,1.545662,2.946769,-9.307043,1.3411,4.315553,-12.470794
19.526977,1.502266,2.85414,-9.218006,-0.456112,6.325108,-16.329787
19.560377,1.695305,3.032065,-9.478684,-8.816962,12.58153,-18.604509
19.593678,1.608961,2.818974,-9.454441,11.438258,50.431319,26.950844
19.627002,1.545662,2.679507,-9.688034,12.835474,62.986662,9.14498
19.66002,2.100987,3.180511,-10.500146,-0.940656,-4.196138,-12.458224
19.693651,-0.010176,-0.027085,-8.422204,-0.095472,-0.127346,-8.38614
19.726906,2.064923,5.17585,-10.404524,-0.476463,4.402196,-8.102567
19.760317,3.256829,4.234895,-10.095811,-0.193339,3.388515,-9.205884
19.793648,0.885437,2.274274,-11.79785,-0.112681,3.110927,-9.343107
19.826983,4.090191,0.493074,-13.732434,0.094574,3.206998,-9.426458
19.860313,4.389626,-0.250652,-9.312281,-0.051627,3.233784,-9.274421
19.893646,5.023364,0.016461,-7.791459,-0.047886,2.995104,-9.464916
19.927058,4.217986,1.799456,-8.515881,-0.063299,3.08444,-9.338318
19.96031,2.25916,1.612552,-6.700413,-0.082902,3.079353,-9.334428
19.993645,1.451836,2.54827,-9.252274,-0.112382,3.06783,-9.167426
20.026997,-0.557869,4.159326,-10.919895,-0.005986,3.180212,-9.269183
20.060305,-0.036663,4.498866,-10.885477,-0.143208,3.108832,-9.289535
20.093647,0.85087,4.458761,-10.33509,-0.087391,3.094466,-9.299411
20.127056,2.297468,4.137478,-9.519087,-0.044294,3.179164,-9.287589
20.16038,2.112061,4.471032,-9.594956,-0.161165,3.086086,-9.204687
20.193749,1.752618,4.423146,-8.287975,-0.120912,3.05122,-9.320361
20.227039,2.46013,4.843793,-9.444415,-0.1049,3.09701,-9.289236
20.260379,3.917054,5.216403,-9.985225,-0.022895,3.147141,-9.300159
20.293819,-0.944696,5.9302,-7.081852,-0.198277,3.08025,-9.200348
20.32696,-0.566847,5.298857,-6.545382,0.105049,3.188891,-9.364207
20.360375,0.095323,6.835391,-10.555514,-0.04205,3.186647,-9.335026
20.393634,0.541408,5.772626,-7.051475,-0.056116,3.198618,-9.342808
20.427046,0.948287,5.469899,-3.505386,-0.001945,3.220017,-9.409548
20.460374,2.176108,5.658299,-2.234917,0.160118,3.438795,-9.514149
20.493711,-1.831181,6.843771,7.603358,-0.124054,3.515412,-9.371838
20.526997,1.681687,2.754029,-9.126723,-0.190944,3.614476,-9.510707
20.560363,1.305485,3.340779,-8.925753,-0.446535,3.693786,-9.744898
20.593706,1.622429,3.220316,-9.281903,-1.339005,1.008593,-11.031828
20.62706,1.664778,3.12215,-9.520584,-0.858053,2.504125,-11.254496
20.660367,1.535187,2.917738,-9.301357,0.883342,8.052586,-15.659237
20.693708,1.435824,2.850249,-9.272924,1.273312,0.840544,-12.01992
20.727057,1.467848,2.907712,-9.314825,0.01661,5.617596,-12.442961
20.760377,1.484458,2.889605,-9.299711,-5.773524,17.247397,-24.455848
20.793724,1.536234,2.968617,-9.285046,-9.691625,-1.124567,-13.941036
20.827041,1.463957,2.914296,-9.271727,-1.782098,-0.279683,-9.115799
20.860373,1.481914,2.86267,-9.276516,-2.563833,0.156975,-8.134591
20.893722,1.568857,3.061096,-9.366002,-2.628029,1.616892,-8.201182
20.927044,1.536534,2.997648,-9.33338,-0.865385,2.697464,-9.845907
20.960394,1.492988,2.972358,-9.320511,0.2933,3.868121,-13.401424
20.993731,1.525311,2.681751,-9.376328,-2.723202,4.842146,-14.908927
21.027061,1.286331,2.956645,-9.207231,3.566141,44.420012,30.173106
21.060354,1.712664,2.89619,-9.585678,6.885671,53.907674,-0.633588
21.093677,1.970199,3.230791,-10.183502,-2.530762,-6.633073,-15.564662
21.12706,0.219526,2.208431,-8.857366,0.143059,3.006626,-10.887422
21.160376,2.835883,5.323697,-11.145257,-0.405383,4.540616,-8.089997
21.193685,2.355679,3.724014,-9.796824,-0.391616,3.337187,-9.250179
21.227043,0.790264,1.707426,-10.941294,-0.281478,3.475607,-9.111759
21.26039,2.622044,2.098742,-15.84644,-0.045791,3.304715,-9.452496
21.293722,4.442151,-1.116486,-7.507287,-0.273248,3.362028,-9.108317
21.327059,1.678994,0.704519,-6.01834,-0.345974,3.284513,-9.076443
21.360381,5.621936,2.764653,-11.450678,-0.179572,3.353199,-9.278761
21.393712,2.289537,2.473149,-6.68889,-0.194685,3.286309,-9.225039
21.427054,2.088267,3.839389,-10.225252,-0.317692,3.350057,-9.074348
21.460346,0.381739,4.616784,-9.939584,-0.162812,3.309354,-9.338169
21.493681,1.027897,4.075975,-9.188975,-0.310359,3.280622,-9.126574
21.52705,2.659903,4.232052,-10.251739,-0.378597,3.342874,-9.107719
21.560383,2.976099,3.413805,-8.958824,-0.215935,3.286907,-9.19092
21.593725,2.493201,3.228547,-9.074049,-0.123755,3.328508,-9.183288
21.627071,1.520672,4.051882,-10.014854,-0.186305,3.30681,-9.168174
21.660375,1.028047,4.429731,-9.744898,-0.07976,3.358586,-9.240003
21.693707,0.862093,3.624651,-7.56086,-0.07138,3.385223,-9.251974
21.727006,1.201633,3.921244,-7.898753,0.070931,3.392855,-9.266939
21.760387,2.459831,4.717644,-7.92509,-0.126897,3.321774,-9.152462
21.793707,2.110564,5.013039,-7.683118,-0.051926,3.374149,-9.304649
21.826975,2.677112,5.452989,-7.732799,0.165355,3.358137,-9.441572
21.860377,4.550343,10.748404,-8.757554,-0.124204,3.421436,-9.200797
21.893722,-0.258882,12.146368,-4.389177,-0.011523,3.573922,-9.44247
21.926984,-1.662982,25.43541,-2.423318,0.294647,3.560604,-10.158362
21.960264,-0.064197,-7.502199,-10.325962,-1.772521,3.253986,-9.591963
21.993721,1.375219,4.906792,-10.519001,-0.190047,3.745563,-8.811575
22.026995,1.066056,3.753494,-9.784554,-0.424687,3.996215,-8.95194
22.060392,1.45438,2.947966,-9.311832,-0.367822,2.058339,-11.721233
22.09371,1.556436,2.993158,-9.183288,0.969237,3.229145,-14.466133
22.126969,1.644576,3.10539,-9.345352,0.439651,3.42009,-14.40882
22.160371,1.412629,2.943028,-9.281604,0.047886,9.916688,-14.911471
22.193709,1.474432,3.011864,-9.310036,-6.787654,10.28915,-25.86279
22.227384,1.55479,3.020693,-9.372587,-6.377034,-7.810314,-9.810891
22.260306,1.439565,2.939436,-9.376028,0.151588,-1.171854,-10.546835
22.293707,1.539676,2.957842,-9.308988,-2.945422,1.329877,-10.231238
22.327573,1.577835,3.083094,-9.164882,-1.460216,4.661976,-10.168089
22.360375,1.533691,2.960386,-9.251825,1.1316,5.442364,-9.995101
22.393718,1.532194,3.127238,-9.332033,0.316944,4.701632,-10.594571
22.427049,1.457373,3.0174,-9.304649,-0.587648,7.034116,-13.866514
22.460383,1.552246,3.067531,-9.449952,-3.751249,16.246884,-17.630184
22.493706,1.516033,3.074265,-9.507864,4.333061,35.807013,9.752081
22.527044,1.778057,2.583885,-9.862518,9.092455,39.877451,7.092178
22.560391,2.157702,2.855038,-9.663642,1.432682,7.079458,3.911517
22.593708,0.895613,3.2061,-9.155155,2.273226,5.94277,-9.417031
22.627043,3.733741,4.516673,-11.55902,-1.150754,3.838641,-9.084075
22.660371,0.985548,1.288426,-11.572937,-0.23479,3.570331,-9.338169
22.692846,0.51567,2.436187,-16.595552,-0.358096,3.293492,-9.247784
22.727044,5.849842,-1.678844,-8.703084,-0.349865,3.387318,-9.238656
22.760387,4.890032,-0.027085,-6.992965,-0.234191,3.03446,-9.213367
22.793769,5.303496,2.169972,-9.681899,-0.523152,3.38208,-9.33787
22.827056,2.492603,2.118794,-6.406215,0.32697,3.190238,-9.535847
22.860374,0.441297,2.597203,-7.348217,-0.1257,3.022488,-9.25811
22.893706,0.893817,5.652762,-13.968421,-0.131686,3.175124,-9.152163
22.927055,-0.858651,4.577278,-9.326646,0.090085,3.160459,-9.330537
22.960374,0.530634,4.050535,-9.174759,-0.224764,3.057205,-9.2412
22.993697,2.955747,4.800695,-10.831156,-0.15937,3.015605,-9.240302
23.026955,2.604835,3.808263,-8.536382,0.078862,3.112573,-9.335026
23.060374,0.836205,3.690943,-8.964211,-0.03756,3.077258,-9.275917
23.093705,1.123968,7.256635,-15.269716,0.056415,3.11811,-9.298364
23.127044,-1.305186,4.62681,-6.469663,0.067938,3.098507,-9.286841
23.160383,-0.17583,4.268715,-8.479817,-0.00015,3.033412,-9.223542
23.193709,0.968788,2.674868,-6.394393,0.077814,3.009469,-9.296718
23.227085,1.874876,3.045234,-6.472806,0.180619,3.052417,-9.343406
23.260388,2.185236,4.13643,-7.261424,0.170593,3.132925,-9.339665
23.293711,2.996899,6.381823,-10.534714,0.12555,3.07636,-9.403862
23.327012,-0.714695,13.720612,6.211379,0.26816,3.188891,-9.550363
23.360379,12.89174,11.431374,-31.170027,0.447582,3.296185,-9.58089
23.393709,-0.966245,-4.516374,0.039057,0.187952,3.31085,-9.76944
23.427044,1.99893,3.854503,-9.774677,0.044444,3.520201,-10.091621
23.460363,0.738488,2.296421,-8.863202,-0.695989,3.203706,-10.982446
23.493725,1.624673,2.768095,-9.538391,-0.262923,-3.55387,-12.203831
23.527046,1.683483,3.022189,-9.623388,1.791376,6.532513,-16.266338
23.560379,1.477275,2.863567,-9.376477,-1.409337,1.326285,-13.12623
23.593305,1.587712,2.927764,-9.379171,-4.5475,2.032002,-16.615006
23.627016,1.612403,2.927016,-9.37947,-10.189338,3.502393,-18.91861
23.660366,1.61764,2.926567,-9.313178,-5.636152,-5.737909,-10.101198
23.693621,1.607165,2.872995,-9.331585,-1.702637,-1.35801,-9.136899
23.727053,1.622878,2.990914,-9.417031,-1.573496,-0.244217,-7.924642
23.760397,1.60926,2.869852,-9.33353,-0.133332,2.473149,-11.103806
23.793419,1.547907,2.877634,-9.282352,-1.535486,4.761938,-12.917927
23.827038,1.619586,2.855487,-9.317967,-2.751934,5.703192,-14.585399
23.859857,1.713412,2.92971,-9.503225,-0.987344,11.609449,-16.656756
23.893699,1.716554,2.614113,-9.612614,17.199212,60.635322,21.029623
23.927033,1.481016,2.278164,-9.740858,15.070242,74.865618,-48.96392
23.960361,1.369832,3.378788,-10.166592,-1.324789,-7.777393,5.660843
23.993698,1.877869,2.961434,-9.619647,0.192142,1.076382,-10.141303
24.027035,2.750138,5.086962,-10.461239,0.111783,4.906044,-9.27891
24.060407,1.571401,3.252789,-10.703062,-0.515221,5.344947,-9.467909
24.093649,-0.160118,1.780601,-13.483877,-0.038458,2.996151,-9.110263
24.127039,4.816558,0.852067,-15.004848,0.083501,3.342724,-9.338019
24.160337,5.035036,-1.38315,-7.713196,0.05462,3.316537,-9.365105
24.193703,6.103038,0.243319,-8.942064,-0.131087,3.180362,-9.118194
24.227057,5.54487,1.265979,-9.346399,-0.011523,3.254884,-9.264694
24.26038,3.211637,2.044422,-8.597736,-0.068088,3.173777,-9.218305
24.293698,0.386677,4.376158,-9.823311,-0.249604,3.104343,-9.185683
24.327037,-0.364231,5.218798,-10.726556,-0.194985,3.261318,-9.212618
24.360356,0.684766,4.985205,-10.580654,0.01272,3.23977,-9.217557
24.393713,2.689832,3.529628,-9.275169,-0.032473,3.094167,-9.339965
24.427064,3.765166,3.517956,-9.953501,0.04594,3.252489,-9.233119
24.460365,3.114369,3.07202,-8.782096,0.039506,3.106887,-9.329639
24.493019,1.866796,3.447923,-8.712063,0.090384,3.142053,-9.3672
24.526351,1.822053,4.016566,-9.654963,0.034717,3.267454,-9.265742
24.559641,2.706891,4.473726,-9.712426,0.137821,3.244558,-9.309587
24.593027,1.464406,3.073367,-4.32109,0.245115,3.287506,-9.310635
24.626351,1.599085,3.708601,-2.16698,0.287015,3.309503,-9.330088
24.659696,3.138462,6.769847,-5.552502,0.205759,3.293941,-9.383062
24.692807,-5.454934,16.704343,-6.772241,0.027235,3.433258,-9.283848
24.727033,-8.478919,30.847247,0.875262,0.040853,3.557013,-9.493648
24.759693,0.185557,-4.159924,-5.458526,0.251699,3.687801,-9.683844
24.792922,1.429389,2.366902,-8.958225,-0.7334,3.26895,-10.004828
24.826346,1.42924,2.844563,-9.600643,-0.351362,1.143571,-10.435351
24.859645,1.350378,2.729038,-9.208877,-0.641968,1.846594,-11.821942
24.892928,1.549104,2.948415,-9.226236,2.452199,5.087711,-15.06276
24.92635,1.60537,2.947667,-9.391442,-2.363161,3.300974,-11.987448
24.959683,1.512741,2.849651,-9.372886,-5.246781,1.09808,-17.19577
24.992922,1.553144,3.069476,-9.473147,-9.536595,-2.780216,-14.999461
25.026349,1.366689,2.824361,-9.141837,-1.723288,-5.331778,-10.100899
25.05969,1.497178,2.735922,-9.488111,-0.786523,-2.040831,-10.868567
25.092971,1.562272,2.833489,-9.372886,-1.595792,0.627303,-11.507243
25.126359,1.572747,2.847256,-9.374532,1.616892,3.375945,-11.84409
25.159692,1.550301,2.781713,-9.343706,2.108319,3.877249,-10.738378
25.193714,1.513489,2.751635,-9.393237,0.513275,3.963293,-11.480757
25.227002,1.506605,2.876437,-9.267687,-7.035762,10.084139,-17.666996
25.260364,1.647718,3.003933,-9.566823,-0.412715,12.709026,-11.956621
25.293681,1.600282,2.851446,-9.506816,14.14889,44.917725,9.581189
25.327073,1.73107,2.702851,-9.803858,7.086641,73.79612,-23.03005
25.360391,1.597438,3.107635,-10.352748,-0.178524,-2.96712,-5.553699
25.393734,0.592137,0.227906,-9.159944,1.748877,1.168562,-11.005341
25.426976,3.102098,5.27222,-10.413802,-0.206657,4.249411,-8.881758
25.460395,1.90675,4.649556,-9.041726,-0.025888,3.029073,-9.008655
25.493677,1.112895,5.464511,-8.010088,0.046689,3.071122,-9.262001
25.526982,0.906836,5.022616,-14.554572,-0.07123,3.232886,-9.220998
25.560305,6.289343,0.692248,-13.949566,-0.015413,3.199217,-9.256913
25.59374,5.260548,-2.070609,-4.449483,-0.048035,3.05092,-9.352535
25.626985,3.929624,0.044594,-5.466606,0.061204,3.250843,-9.192566
25.660407,5.747037,3.464234,-10.310249,0.240027,3.078006,-9.389197
25.69366,2.234618,5.443561,-8.480266,-0.026038,3.136217,-9.171616
25.72712,0.728612,5.851189,-7.968337,0.073774,3.098656,-9.263048
25.76033,2.670678,6.077449,-9.489757,-0.157424,2.922527,-9.290283
25.793684,2.663644,8.332269,-11.324529,-0.063748,3.009619,-9.182091
25.826975,1.277801,11.155582,-10.792848,0.115225,3.087733,-9.343107
25.860308,-3.128735,7.293448,3.259223,0.018556,3.12664,-9.307043
25.893699,-0.925691,35.750747,-23.588218,-0.081855,3.200264,-9.144082
25.927054,3.301273,8.544014,-17.11227,0.220574,3.072768,-9.754475
25.96036,2.134806,3.804822,-10.079201,-0.208602,3.174974,-9.222794
25.993719,1.800055,3.636473,-10.116911,0.028881,3.155072,-9.510258
26.027066,1.627966,2.861023,-9.662744,0.23464,2.993607,-9.508014
26.060407,1.419663,2.864016,-9.362561,-0.93033,2.895292,-8.716851
26.093671,1.666125,2.953652,-9.38785,0.483496,3.020094,-9.577897
26.127035,1.516931,2.607229,-10.224953,0.208303,2.822565,-9.449054
26.160403,1.65131,2.40162,-9.996747,-0.349716,3.318931,-9.120139
26.193684,1.510047,2.770938,-9.658554,0.129142,2.800568,-9.473147
26.227021,1.574393,2.794432,-9.381565,0.056415,2.559942,-9.2412
26.260375,1.391979,2.738316,-9.532555,0.187203,3.21029,-9.325
26.293691,1.347684,2.626683,-9.466562,0.111783,3.008721,-9.499933
26.326987,1.551049,2.533006,-9.33353,-0.073624,3.087733,-9.205136
26.360394,1.683483,2.224442,-9.280407,-0.465539,2.851596,-9.074348
26.392895,1.729274,2.765102,-10.02907,-0.119864,2.62788,-9.204687
26.427011,1.650113,2.588224,-9.27472,0.118218,2.803261,-9.41733
26.460363,1.3203,2.624288,-9.426907,0.192441,2.966222,-9.437382
26.493624,1.459617,2.560092,-9.349242,-0.19693,3.188592,-9.206932
26.527048,1.647718,2.867159,-9.474942,0.16745,2.716468,-9.369444
26.560397,1.639937,2.801316,-8.761146,0.003292,2.790242,-9.361513
26.59374,1.529949,2.608875,-8.405444,-0.081406,3.002885,-9.456985
26.627039,1.006498,2.248984,-8.962565,-0.041002,2.788447,-9.321409
26.660384,1.196695,2.65302,-9.407453,-0.086194,3.041194,-9.544526
26.693736,1.347984,2.428256,-9.305098,-0.155928,2.966971,-9.317668
26.727075,1.348882,2.616806,-9.41329,-0.058211,2.906216,-9.430199
26.760388,1.355915,2.543032,-9.381116,0.05881,3.10569,-9.377076
26.793812,1.433579,2.700008,-9.544975,-0.447582,2.783957,-9.250478
26.826313,1.455278,2.488861,-9.303751,-0.060605,2.955299,-9.053099
26.859481,1.479969,2.650775,-9.406406,-0.040404,3.004381,-9.265592
26.892683,1.440762,2.569519,-9.359717,-0.089935,2.969066,-9.26634
26.927082,1.4249,2.649279,-9.489308,-0.051178,2.926717,-9.30839
26.960394,1.435375,2.546025,-9.388,-0.141862,2.928213,-9.290433
26.993695,1.444952,2.64045,-9.420023,-0.106097,2.957394,-9.361513
27.027062,1.381504,2.678609,-9.477786,-0.064945,2.952006,-9.308091
27.060532,1.439116,2.695818,-9.472249,-0.077515,2.959189,-9.381266
27.093734,1.459617,2.609324,-9.404461,-0.053273,2.86656,-9.328592
27.127094,1.430886,2.656162,-9.498586,-0.08784,2.88347,-9.298962
27.160382,1.426845,2.6195,-9.411643,-0.073475,2.918786,-9.348345
27.19371,1.431933,2.646286,-9.438729,-0.019903,2.868206,-9.281304
27.227092,1.406494,2.634763,-9.427955,0.006435,2.911603,-9.389796
27.260331,1.413976,2.613664,-9.401917,-0.065394,2.928064,-9.317518
27.293751,1.547607,2.678309,-9.279209,-0.052525,2.886014,-9.315124
27.327093,1.355167,2.574607,-9.507565,-0.106097,2.888857,-9.319015
27.360427,1.360703,2.547372,-9.370641,-0.103553,2.865812,-9.37109
27.393756,1.448244,2.800418,-9.486615,-0.100859,2.838278,-9.342957