time_tick,acc_X_value,acc_Y_value,acc_Z_value,acc_A_value,acc_B_value,acc_C_value
0.007599,0.114327,3.463935,-9.0528,-0.296293,3.379536,-9.304499
0.020411,-0.290607,3.387467,-8.986209,0.1468,3.561951,-9.265592
0.054079,0.600517,3.448372,-9.135253,-0.425136,3.379087,-9.395781
0.087375,0.208153,3.331501,-8.912734,0.099961,3.424728,-9.255267
0.12051,0.056116,3.206399,-9.32949,0.048035,3.455405,-9.30435
0.155136,0.402689,3.528132,-9.250029,-0.12136,3.322373,-9.197654
0.187301,0.244966,3.44942,-9.243744,0.086344,3.473662,-9.308839
0.220209,0.306169,3.415151,-9.198103,-0.034268,3.458548,-9.272326
0.255055,0.204562,3.314741,-9.118493,-0.033819,3.39495,-9.289236
0.287187,0.270554,3.26057,-9.208877,0.154132,3.41141,-9.255865
0.32118,0.183013,3.125443,-9.166379,0.086344,3.37789,-9.265592
0.354576,0.478708,3.548483,-9.282951,-0.057014,3.408567,-9.31258
0.387525,0.18436,3.164799,-9.208728,0.072577,3.283615,-9.265143
0.420707,0.248856,3.450317,-9.240452,-0.153683,3.331501,-9.240751
0.454333,0.793706,3.4578,-9.173262,-0.084848,3.205801,-9.173711
0.487606,0.256638,3.142053,-9.223542,-0.130938,3.423531,-9.31273
0.520826,0.887682,3.155371,-9.217557,0.021998,3.495659,-9.331136
0.554433,0.208602,3.392256,-9.27891,0.054021,3.277031,-9.225188
0.588109,0.873316,3.127388,-9.080035,0.240027,3.33195,-9.264694
0.620931,0.699581,3.280622,-9.087517,0.040254,3.315788,-9.157699
0.654265,0.366625,3.115267,-9.063125,-0.612189,3.103744,-9.057738
0.688137,-0.119565,3.388665,-9.289535,0.238082,3.687651,-9.437382
0.720068,0.244367,3.142053,-9.197504,-0.203215,3.422185,-9.276965
0.754666,0.49472,3.471118,-9.222495,0.024841,3.271793,-9.288188
0.787802,0.439801,3.516909,-9.125526,0.051028,3.463187,-9.270081
0.820293,0.209051,3.341377,-9.049657,0.055368,3.589036,-9.357772
0.855221,0.404186,3.489674,-9.12792,-0.184809,3.254584,-9.214564
0.88778,0.287015,3.376543,-8.982916,0.045791,3.453759,-9.312131
0.920361,0.312006,3.405425,-8.972142,-0.074821,3.548184,-9.331585
0.956102,0.535871,3.246354,-9.056541,-0.27654,3.29843,-9.233868
0.988697,0.227757,3.454657,-9.235514,-0.12166,3.435802,-9.274271
1.020335,0.274296,3.44523,-9.204388,-0.370067,3.360382,-9.219502
1.054555,0.298837,3.444781,-9.253621,0.267861,3.591131,-9.292528
1.087186,0.458057,3.492666,-9.177003,-0.063299,3.380584,-9.238058
1.120881,0.210248,3.437747,-9.167875,-0.210847,3.47456,-9.240602
1.154695,0.51133,3.477104,-9.06088,-0.05462,3.502692,-9.286991
1.187292,0.064496,3.396895,-9.23716,-0.244666,3.453909,-9.289834
1.220808,0.117619,3.419042,-9.111759,-0.256638,3.422185,-9.227732
1.254704,0.227158,3.475457,-9.09455,0.081705,3.556414,-9.265143
1.287658,0.262474,3.430714,-9.115949,0.056415,3.515262,-9.304649
1.321111,0.270704,3.465282,-9.138994,-0.047287,3.387617,-9.250478
1.354729,0.219227,3.432061,-9.132559,-0.184061,3.39914,-9.215611
1.38766,0.210398,3.413505,-9.173861,-0.035316,3.436999,-9.263796
1.420167,0.191693,3.445678,-9.121785,-0.109838,3.532471,-9.282053
1.454646,0.211894,3.469172,-9.150517,0.045491,3.450168,-9.261252
1.487302,0.323827,3.479049,-9.140939,0.034268,3.361579,-9.288188
1.520003,0.257984,3.464534,-9.145578,-0.057014,3.44493,-9.245689
1.554759,0.299136,3.410363,-9.151115,-0.003591,3.43251,-9.255416
1.589048,0.323229,3.451515,-9.183139,0.013019,3.483089,-9.285644
1.620614,-0.277438,3.434455,-9.242397,-0.061803,3.333297,-9.26634
1.654509,0.084698,3.283166,-9.338618,-0.091881,3.372503,-9.242248
1.687065,0.396554,3.393453,-9.29567,-0.006734,3.387168,-9.268136
1.721207,0.076318,3.435353,-9.205136,-0.032473,3.433557,-9.27472
1.754889,-0.209799,3.367266,-8.956579,-0.061803,3.345268,-9.231024
1.787742,0.43187,3.586343,-9.160393,0.012271,3.463336,-9.274122
1.821167,0.346274,3.547885,-9.32515,0.018705,3.47022,-9.283399
1.854209,0.240177,3.490272,-9.360017,-0.050579,3.433707,-9.263497
1.888334,0.377549,3.395249,-9.074348,0.059558,3.456902,-9.302404
1.92086,0.222669,3.469472,-9.147224,-0.561909,3.310102,-9.243744
1.955183,0.151888,3.367565,-9.234017,-0.036214,3.421586,-9.283699
1.990298,0.492774,3.430116,-9.080783,0.079011,3.43251,-9.269932
2.02003,0.273547,3.353947,-9.037536,-0.013917,3.446427,-9.308839
2.054266,0.100859,3.377142,-9.073002,-0.011672,3.423681,-9.290882
2.088961,0.176279,3.389562,-9.159944,-0.061653,3.392406,-9.261252
2.120911,0.185258,3.400337,-9.135403,-0.021399,3.421736,-9.273972
2.154431,0.220125,3.379985,-9.072852,-0.070781,3.36981,-9.275019
2.187698,0.476313,3.44074,-9.181493,-0.086494,3.434006,-9.278312
2.220425,0.200222,3.454807,-9.16563,-0.218778,3.324767,-9.236861
2.254765,0.260229,3.404078,-9.131063,-0.128394,3.414553,-9.251974
2.288473,0.254543,3.472914,-9.193314,0.095173,3.477253,-9.315722
2.320982,0.244367,3.473961,-9.204538,-0.026487,3.415301,-9.306295
2.355641,0.374407,3.390909,-9.192716,-0.017209,3.354247,-9.281304
2.387235,0.247809,3.463187,-9.180295,0.005537,3.38208,-9.270231
2.421039,0.290906,3.372503,-9.117894,0.026038,3.355145,-9.239105
2.454599,0.225811,3.363674,-9.156353,0.004489,3.480845,-9.301207
2.487814,0.355552,3.470519,-9.085272,-0.01661,3.362776,-9.286392
2.520167,0.225512,3.469771,-9.177153,0.020052,3.398242,-9.286692
2.554674,0.202317,3.387168,-9.157699,0.032323,3.477852,-9.292228
2.587774,0.195134,3.435353,-9.138695,-0.029031,3.380584,-9.289684
2.620222,0.450575,3.300525,-9.129866,-0.043247,3.421137,-9.223243
2.654544,-0.092629,3.294988,-9.039182,-0.083201,3.456902,-9.307642
2.687918,0.506242,3.35694,-9.075695,-0.099064,3.454807,-9.271129
2.721075,0.559216,3.531873,-9.149619,0.110586,3.621509,-9.356725
2.754994,0.002694,3.278378,-9.197654,-0.088888,3.492966,-9.23716
2.788324,0.36064,3.407071,-9.12403,-0.019903,3.21463,-9.122683
2.819862,0.183762,3.324917,-9.206034,0.071978,3.635875,-9.401767
2.854061,0.087691,3.590084,-9.205436,-0.00015,3.554918,-9.296867
2.888271,0.252747,3.460792,-9.105324,-0.210398,3.410961,-9.286841
2.919905,0.421245,3.423232,-9.080933,0.139467,3.454358,-9.281005
2.954337,0.387575,3.34856,-9.161141,-0.066292,3.353199,-9.27891
2.987545,0.136175,3.379985,-9.269034,0.175531,3.598913,-9.340862
3.020426,0.225362,3.544742,-9.212768,0.189149,3.552374,-9.363758
3.054179,0.289409,3.499849,-9.131362,-0.478857,3.328358,-9.21187
3.088098,0.371863,3.460044,-9.078838,0.292103,3.4578,-9.246288
3.121218,0.424088,3.552823,-9.032748,0.041152,3.341377,-9.270081
3.153744,0.185557,3.410213,-9.09455,-0.243768,3.488626,-9.158897
3.187503,0.32278,3.49551,-9.109664,-0.224764,3.460942,-9.230426
3.221261,0.134978,3.467676,-9.11969,-0.085446,3.48279,-9.271877
3.254627,0.430972,3.308755,-9.115799,0.267861,3.628841,-9.314974
3.287507,0.31006,3.281071,-9.138395,-0.414212,3.224955,-9.284597
3.32064,0.269657,3.312197,-9.166828,0.038907,3.519303,-9.288487
3.354771,0.34358,3.378638,-9.180295,-0.276091,3.305014,-9.248982
3.387457,0.429625,3.517657,-9.188376,0.119116,3.44927,-9.292977
3.420047,-0.002694,3.458847,-9.155904,-0.210099,3.400337,-9.268884
3.454164,0.311557,3.242014,-9.183438,-0.105498,3.089379,-9.188526
3.489231,0.057463,3.448971,-9.195709,0.240027,3.324767,-9.27891
3.520448,0.32263,3.617918,-9.058486,-0.34358,3.165547,-9.099788
3.553139,0.139318,3.47022,-9.14887,-0.542156,3.425177,-9.202293
3.587893,0.483197,3.528581,-9.202892,0.438005,3.831757,-9.287141
3.620839,0.288961,3.602355,-9.169072,-0.032173,2.928064,-9.149469
3.654986,0.556971,3.449719,-9.059534,0.437706,3.526785,-9.202742
3.688195,0.017359,3.571229,-9.045766,-0.03352,3.5413,-9.22444
3.720261,0.46524,3.666701,-9.04427,-0.053572,3.456602,-9.142885
3.754871,0.058061,3.78866,-8.970795,-0.322181,3.47007,-9.237609
3.788738,0.000599,3.638718,-9.01075,-0.266065,3.562849,-9.192417
3.820903,0.22626,3.79719,-8.92291,-0.238381,3.743917,-9.202293
3.854056,0.268759,3.583051,-9.507864,-0.081406,3.545041,-9.27472
3.887096,0.533178,3.736435,-9.200048,-0.179123,3.631236,-9.107868
3.921489,0.710804,3.562699,-9.021075,0.007033,3.417845,-9.131662
3.95418,-0.225961,3.603253,-9.575054,-0.158322,3.514065,-9.227134
3.987329,0.331609,3.688848,-9.346549,-0.133631,3.099854,-9.231024
4.021685,0.382936,4.223523,-8.457819,0.188251,4.181323,-9.232072
4.053195,0.26816,4.693102,-7.905637,-0.146351,4.145259,-9.004465
4.087866,0.845632,4.518169,-8.093139,-0.459553,4.435567,-8.802896
4.120927,0.425734,4.511136,-8.063211,-0.891722,4.194043,-8.387188
4.154782,0.383984,4.029885,-8.601327,0.11747,4.23714,-9.324102
4.188073,0.69569,3.557312,-9.738464,0.364231,4.700135,-9.699856
4.220388,0.646458,3.465431,-9.794879,0.584356,4.0444,-10.316385
4.253847,-0.816153,3.215378,-9.575054,0.864487,3.293342,-8.893131
4.288344,-0.122558,3.424878,-8.965558,-0.884988,3.635126,-9.580441
4.32021,-0.155629,3.46618,-9.057888,-0.081555,3.455854,-9.331136
4.354904,0.941703,3.281071,-9.1785,-0.571486,3.355593,-9.247186
4.387936,0.880649,3.266257,-9.186431,0.096819,3.358287,-9.298813
4.421226,0.304224,3.567338,-9.103379,-0.11732,3.450317,-9.187029
4.455018,-0.081705,3.398541,-9.106522,-0.350913,3.275534,-9.233119
4.488149,0.308564,3.441189,-9.116248,0.224913,3.726109,-9.460128
4.519899,0.274146,3.186497,-8.945057,-0.675488,3.216276,-9.01479
4.554427,0.214887,3.706955,-9.745347,0.358694,3.754242,-9.588372
4.587385,0.401193,3.599661,-9.411643,0.05851,3.546987,-9.264544
4.620815,0.338492,3.534866,-9.327993,-0.312754,3.220915,-9.265293
4.654379,0.501304,3.91855,-8.806188,-0.316495,3.47426,-9.265293
4.688289,0.65813,3.97751,-8.660436,-0.2303,3.671939,-9.03993
4.721103,0.428577,3.807365,-8.613149,-1.335414,3.933066,-9.078089
4.755059,0.116572,4.173392,-8.665374,-0.637629,3.394201,-9.315872
4.787835,0.467185,2.989268,-9.851893,-0.668156,2.737568,-8.643826
4.821779,0.120313,2.710782,-9.487213,1.237248,3.185449,-9.176854
4.854264,0.878703,3.753045,-9.208428,-0.246312,3.063939,-9.148422
4.887585,-0.368571,3.803924,-9.113854,-0.203365,3.373102,-9.230576
4.920671,0.381739,3.583949,-9.068961,-0.193937,2.967569,-8.991895
4.954706,0.927786,3.393902,-9.084075,-0.090384,3.873657,-9.447109
4.98722,0.286716,3.377292,-9.156053,-0.528539,3.075761,-9.233568
5.020476,0.198127,3.456004,-9.108168,-0.135577,3.391807,-9.345202
5.053717,0.345675,3.456004,-9.114453,0.032622,3.334494,-9.335775
5.08719,0.25993,3.454807,-9.066717,-0.534824,3.236627,-9.215013
5.120837,0.44848,3.57063,-9.110712,-0.067489,3.438047,-9.332482
5.155226,0.193937,3.511072,-9.176255,-0.341635,3.410063,-9.324252
5.187789,0.077365,3.348411,-9.037237,-0.18032,3.307109,-9.250777
5.220825,0.303626,3.479947,-9.037536,-0.311856,3.303069,-9.271278
5.254739,0.424537,3.513616,-9.0944,-0.169396,3.543994,-9.299411
5.287833,0.479157,3.460942,-9.187628,-0.333255,3.296484,-9.221148
5.320624,0.462397,3.344969,-9.131213,-0.25574,3.311898,-9.288787
5.354845,0.184659,3.460792,-9.142885,-0.083201,3.511821,-9.322157
5.387908,0.345675,3.480994,-9.162189,-0.11717,3.668946,-9.294174
5.420041,0.260678,3.432809,-9.158448,-0.292253,3.535764,-9.272476
5.454567,0.279084,3.448522,-9.151863,-0.143657,3.569433,-9.269034
5.488262,0.346274,3.427721,-9.147524,-0.164458,3.447325,-9.214713
5.520249,0.417803,3.496557,-9.141388,-0.146351,3.573324,-9.252124
5.554711,0.291205,3.480096,-9.145728,0.003741,3.482042,-9.219203
5.587094,0.229702,3.457201,-9.135403,-0.099662,3.537709,-9.259457
5.621058,0.342832,3.423831,-9.114153,-0.164009,3.46618,-9.231922
5.654097,0.305272,3.450018,-9.147374,0.010325,3.572426,-9.264395
5.687173,0.329514,3.484286,-9.108916,-0.263671,3.539954,-9.219352
5.72057,0.22611,3.480246,-9.133607,-0.198427,3.518106,-9.231623
5.754325,0.149493,3.469771,-9.14902,-0.078114,3.511372,-9.238656
5.787205,0.35211,3.462439,-9.155754,-0.207106,3.44508,-9.233419
5.82005,0.302877,3.466479,-9.130015,-0.071679,3.46588,-9.219203
5.854781,0.273098,3.475457,-9.145878,-0.093976,3.515861,-9.229827
5.887939,0.322032,3.424429,-9.116997,-0.252298,3.462738,-9.201994
5.920516,0.28088,3.422783,-9.179547,0.121809,3.517657,-9.250328
5.954876,0.323678,3.456153,-9.135403,-0.040853,3.535464,-9.248233
5.987201,0.327269,3.436999,-9.166828,-0.117919,3.508529,-9.220101
6.021354,0.288961,3.454058,-9.175806,-0.478259,3.367116,-9.296718
6.05421,0.212643,3.420987,-9.162488,0.064197,3.346615,-9.234766
6.087844,0.231797,3.410662,-9.168474,0.183612,3.606694,-9.284896
6.12122,0.31859,3.450916,-9.159196,-0.414062,3.142352,-9.007907
6.153848,0.348518,3.398691,-9.31243,0.621318,3.589336,-9.345501
6.187074,0.303326,3.443883,-9.24135,-0.070931,3.452113,-9.345202
6.221378,0.395357,3.486232,-9.361363,-0.694942,3.495659,-9.288487
6.254206,-0.138719,3.14759,-9.673668,-0.334153,3.527084,-9.242098
6.287691,-0.294348,2.135405,-10.00408,-0.222669,3.338534,-9.257661
6.32018,0.95143,0.262923,-10.931417,-0.271752,3.467975,-9.250478
6.353911,2.738915,0.016161,-10.860786,-0.291355,3.401235,-9.271278
6.387502,5.256059,0.133182,-10.896401,-0.493672,3.32357,-9.24135
6.419798,3.513018,-0.145303,-8.96062,0.013468,3.418892,-9.262749
6.454163,2.771387,0.237184,-9.153509,-0.202317,3.393004,-9.296718
6.487526,1.71012,1.693809,-9.557695,-0.13827,3.391657,-9.279808
6.521232,1.691714,3.535165,-11.050234,-0.227158,3.378788,-9.272924
6.554449,1.936829,3.5624,-11.149896,-0.213989,3.507032,-9.261252
6.587336,1.287079,2.190922,-9.315124,-0.466287,3.408866,-9.218903
6.621157,0.643315,2.100987,-8.507052,-0.441447,3.472465,-9.214713
6.654815,0.925093,4.581319,-8.70488,-0.350015,3.528132,-9.246887
6.687766,1.497028,5.593055,-9.037536,-0.108341,3.413655,-9.254668
6.72143,1.337958,4.710461,-7.040401,-0.302428,3.559856,-9.266639
6.75537,0.648702,6.100195,-7.477508,-0.249305,3.402731,-9.175357
6.787598,-0.434114,7.303174,-8.012781,-0.112232,3.69214,-9.439028
6.820869,-0.665313,8.069197,-7.117467,-0.211595,3.620312,-9.332632
6.854672,-0.202617,7.934069,-3.707254,-0.143657,3.542198,-9.217257
6.88743,0.530185,9.898133,0.061054,-0.337146,3.688399,-9.205585
6.920848,-1.988156,4.560219,-9.096944,-0.248258,3.77175,-9.330687
6.954506,-6.473105,6.292785,-8.542218,0.111634,3.473063,-9.329938
6.987847,1.501218,2.212022,-6.59671,-0.285369,3.803026,-9.479581
7.019796,0.307516,3.184851,-9.753877,-0.056116,3.167941,-9.936741
7.054184,1.008593,3.42817,-8.941765,0.371713,0.692248,-11.47911
7.088624,0.5869,3.369361,-9.323803,-2.260955,1.997434,-13.179204
7.1219,0.545299,3.439393,-9.222794,1.572598,0.560114,-16.410444
7.154812,0.009278,3.251143,-9.223093,-5.914637,-6.607634,-26.591252
7.187987,0.119714,3.288553,-9.125077,-6.040637,-11.136129,-21.519703
7.219787,0.333404,3.336439,-9.116697,-1.381354,-7.676534,-13.797529
7.253783,0.385181,3.180212,-9.180295,-1.396917,-0.736543,-13.875493
7.287355,0.349416,3.45346,-9.023619,-2.94228,2.303753,-12.371282
7.319835,0.452071,3.637072,-9.224889,-2.411197,3.061695,-9.827352
7.354439,0.447432,3.395847,-9.123282,-0.54919,1.9069,7.281327
7.387398,-0.101608,3.448971,-9.330986,5.264888,74.89824,-36.497765
7.421115,-0.014665,2.939736,-9.474194,-3.903586,46.778684,12.764693
7.453857,0.744923,3.510324,-9.0528,1.382701,-6.425668,-6.742911
7.487838,-0.215187,3.328358,-9.335924,-0.094275,4.429731,-9.40461
7.520258,0.333404,3.422633,-9.264993,-0.887383,3.108832,-9.020926
7.554805,0.914318,3.542946,-9.419126,0.020052,3.723565,-9.165182
7.58738,0.660973,3.451215,-9.761209,0.123156,3.748855,-9.144381
7.621433,0.522254,3.286907,-9.439028,0.104002,3.648295,-9.18254
7.65443,0.605306,3.045234,-10.299026,0.088888,3.747508,-9.198103
7.686303,1.964213,3.220915,-11.000702,0.072427,3.716233,-9.209626
7.720211,1.274958,0.807922,-10.200561,0.324276,3.515861,-9.230576
7.753611,2.783957,-0.355252,-9.93704,0.131835,3.662511,-9.141388
7.786308,4.250608,-0.428877,-10.918249,0.028731,3.733891,-9.156652
7.820305,3.334793,-0.739087,-9.971158,0.282376,3.528281,-9.196607
7.853703,1.717751,0.660374,-10.482039,0.40254,3.535315,-9.200198
7.886888,-0.123007,3.132177,-10.296931,0.294048,3.510324,-9.18269
7.920504,0.272799,3.432809,-10.009467,0.130938,3.733891,-9.158448
7.95373,2.000128,3.44493,-10.056455,0.181816,3.73853,-9.217257
7.987028,2.222048,3.116913,-8.988753,0.167151,3.708302,-9.184186
8.020317,1.388537,3.734639,-9.291929,0.218778,3.644105,-9.119092
8.053947,1.04376,4.192546,-9.187778,0.265467,3.566291,-9.204238
8.086997,0.162213,4.89512,-9.284746,0.149643,3.23139,-9.020477
8.120389,-0.699281,4.436614,-8.010537,0.236735,3.895356,-9.263347
8.154346,0.440998,5.542027,-8.399608,0.556223,3.649941,-9.250927
8.186579,1.779404,5.208921,-6.740068,-0.260379,3.673285,-9.20783
8.220851,2.273076,5.580185,-7.28821,-0.192291,3.655179,-9.280556
8.253851,3.502094,8.984862,-10.850161,-0.045342,3.464534,-9.138395
8.290401,3.17692,7.071228,-6.309695,0.041451,3.607891,-9.22025
8.321284,-2.955299,19.045806,-5.525566,0.183911,4.510687,-9.392489
8.355405,-17.823822,25.660922,-17.697224,0.333404,3.603701,-9.686837
8.386589,4.999421,6.559898,-13.538646,1.022211,4.012526,-10.067529
8.420379,-0.21773,3.7927,-9.786499,-2.621744,2.092158,-9.862518
8.453413,-0.458955,3.429068,-9.627578,-2.389499,3.840287,-12.719501
8.487931,0.146201,3.363375,-9.394435,0.853713,3.24381,-17.168236
8.519584,0.839347,3.338085,-9.205286,-1.301295,-1.703386,-22.620477
8.554034,0.247509,3.229594,-9.152462,-2.813886,-8.170355,-16.349539
8.588564,-0.059259,3.274487,-9.232222,-9.818822,-7.23808,-14.686707
8.620525,0.706764,3.530077,-9.105624,-6.136408,-3.388365,-16.007156
8.65438,0.719034,3.431612,-9.12792,-5.00406,0.134379,-14.441143
8.68817,0.471675,3.246055,-9.280856,-2.639702,5.114646,-12.464659
8.72056,0.209051,3.479797,-9.245689,-1.794668,3.708452,-5.981528
8.754007,0.081555,3.385223,-9.285644,-5.943967,0.163859,7.450124
8.787426,0.644961,3.508678,-9.126574,4.264974,21.127489,30.078232
8.819658,0.777245,3.306361,-9.246138,19.617741,68.417653,21.04339
8.853837,1.194899,3.213133,-9.636706,-0.180769,0.060007,-15.256847
8.887533,1.196395,3.045982,-9.923572,-0.516268,6.639358,-10.30157
8.920351,1.409038,2.913099,-9.107569,-0.782184,4.187908,-9.481976
8.954627,2.150519,3.810957,-8.78853,0.489482,3.845524,-9.368696
8.987458,3.797489,4.902453,-8.995786,1.205673,3.617169,-9.228929
9.021103,1.519774,4.796356,-9.965472,0.812262,3.887574,-9.232521
9.054227,1.896575,3.816045,-11.017013,0.372461,3.567039,-9.309587
9.088797,0.937663,0.600816,-10.308603,-0.371414,3.288404,-8.933235
9.120577,4.55588,1.878169,-9.60992,-0.177626,3.240967,-8.987855
9.154473,4.291161,0.489931,-7.09966,-0.20935,3.505985,-9.045617
9.186513,3.513167,2.372739,-9.458482,-0.384732,3.357389,-9.099039
9.220049,-0.210398,1.520073,-8.761146,-0.260379,3.595471,-9.155754
9.254033,0.175232,4.455918,-9.50966,0.577023,3.651138,-9.32949
9.28719,1.812475,3.533369,-9.007159,-0.044145,3.746461,-9.311383
9.320839,1.975736,3.501944,-9.06118,-0.529736,3.748406,-9.188825
9.353954,2.356128,3.497605,-9.209925,0.317542,3.670891,-9.246138
9.387574,2.411795,4.457564,-9.65631,-0.542007,3.543246,-9.202892
9.419667,1.21106,3.814548,-9.004914,-0.300932,3.501645,-9.204388
9.454115,0.87586,3.661613,-9.771984,-0.39805,3.517956,-9.089911
9.487655,2.376031,4.465944,-10.644851,-0.109539,3.715634,-9.193763
9.520011,2.140493,3.199067,-8.184721,0.07123,3.410213,-9.158597
9.554848,0.577023,1.359506,-6.222603,-0.1046,3.552224,-9.145878
9.587188,-0.459553,2.50622,-8.234702,-0.291205,3.750052,-9.157999
9.621522,0.69973,4.264076,-11.580269,0.0208,3.63782,-9.06507
9.654086,0.614434,3.174825,-9.338019,0.272201,3.413954,-9.388
9.686647,0.175082,2.983132,-7.654087,0.244816,3.528132,-9.222345
9.720879,-0.673992,4.119371,-6.939093,-0.174783,3.372802,-9.167127
9.753691,-0.464192,8.363844,-8.950594,-0.064346,3.445978,-9.196607
9.787414,-0.478259,10.16734,-8.392126,0.270255,3.546837,-9.155455
9.820836,0.118517,10.51945,-0.711103,0.102805,3.554619,-9.16593
9.856729,-1.635897,27.607777,-8.668068,0.028133,3.427422,-9.016137
9.887165,0.597524,-2.639402,-10.765164,0.174035,3.751998,-9.300758
9.921043,1.353072,5.434733,-8.949546,0.02529,3.680019,-9.23282
9.953952,-0.124952,4.125806,-9.192566,0.633588,2.209777,-9.755822
9.9872,0.178973,3.213582,-9.328592,0.000299,1.675103,-11.325876
10.020704,0.499957,3.00079,-9.224739,0.020651,4.401149,-13.328548
10.054064,0.897409,3.492517,-9.215312,3.498951,4.037217,-20.492255
10.087624,0.034867,3.303069,-9.33772,4.930885,-8.131598,-31.296924
10.12059,0.212792,3.196373,-9.152013,-4.696095,-6.993563,-25.828223
10.154771,0.273547,3.459895,-9.159196,-4.165461,-7.069881,-13.661802
10.187068,0.337744,3.448522,-9.216509,-2.768544,-1.880413,-14.125995
10.219699,0.330412,3.334494,-9.233269,-0.165355,1.159733,-12.081124
10.255027,0.387426,3.408268,-9.149319,-1.513189,3.078006,-8.580078
10.287197,0.371563,3.375795,-9.181193,-2.313031,1.024605,3.686304
10.320577,0.468532,3.333446,-9.171766,-2.257513,53.508427,-50.453915
10.354448,0.13812,3.371905,-9.212768,8.044805,53.205101,-4.128799
10.387197,0.0211,3.219269,-9.297915,-7.253343,70.620547,16.813882
10.421395,0.262324,3.332698,-9.529861,8.075931,-16.608871,-4.164414
10.453723,1.824596,3.890417,-9.487363,1.26568,5.254114,-9.554253
10.48716,1.359955,3.583051,-9.686538,0.314549,3.999806,-9.137498
10.521875,0.597674,4.411474,-9.34595,-0.684317,3.308755,-9.182839
10.557249,-0.18032,3.881738,-9.299112,-0.70003,3.827268,-9.383211
10.587193,0.140215,4.144661,-10.334492,-0.320086,3.719375,-9.309288
10.62069,0.569691,2.146778,-9.644787,0.621617,2.907114,-9.166528
10.653945,1.786288,1.474881,-9.992108,0.028133,3.542797,-9.18673
10.687653,2.844114,1.484757,-9.294323,0.317991,3.420538,-9.230426
10.720709,2.903223,1.657595,-9.388598,0.589294,3.651587,-9.280856
10.7545,1.149856,2.660053,-9.638053,0.425585,3.426973,-9.218006
10.787193,1.509299,3.459745,-9.6813,0.263821,3.492666,-9.163535
10.820298,2.30914,3.033263,-9.846656,0.010625,3.54145,-9.227583
10.854268,2.04113,2.651673,-9.406705,0.255889,3.568835,-9.198402
10.887296,2.192868,2.861772,-9.894541,0.379046,3.330902,-9.170868
10.920183,1.569755,3.726259,-9.811639,0.292851,3.611782,-9.244043
10.95409,0.416307,3.223608,-9.496491,0.217132,3.514365,-9.147374
10.987197,0.297939,3.307259,-10.116162,0.400893,3.661464,-9.127172
11.021221,-0.01691,3.51227,-9.740858,0.039655,3.576616,-9.192117
11.053856,-0.372012,3.736884,-9.465365,0.362884,3.54549,-9.170269
11.087582,-0.975672,3.356042,-9.470304,0.427081,3.588887,-8.990249
11.121344,-0.430972,3.426225,-9.846805,-0.013169,3.633331,-9.08198
11.154376,0.428128,2.805805,-8.627215,0.017209,3.633331,-9.165331
11.187922,0.466736,4.24971,-7.307215,0.166553,3.758582,-9.076443
11.220483,-0.253944,6.344262,-7.482447,0.159519,3.682114,-9.11984
11.253167,-0.460302,12.100578,-9.129716,0.048335,3.894308,-9.168025
11.287438,-1.532643,12.683736,0.071978,0.223118,3.96464,-9.074049
11.320445,8.45767,27.565877,-8.511392,0.218778,2.447261,-9.583883
11.353885,-3.782076,-9.295521,-7.01571,-0.038309,2.273076,-9.616205
11.387931,0.152935,1.057527,-9.556199,-1.150455,1.715058,-10.260418
11.420394,2.570417,3.895954,-9.683245,3.104942,3.545191,-14.425131
11.45379,-0.179721,3.346016,-9.113405,-2.720658,4.577578,-23.921173
11.488626,-0.342233,2.980887,-9.367648,-6.694876,-3.016353,-35.566687
11.519522,0.44025,3.076659,-9.258708,-6.477594,-12.201886,-22.735851
11.554207,0.723673,3.67987,-9.194811,-3.436101,-6.343215,-17.147136
11.587783,0.663068,3.49551,-9.151564,0.867331,-1.740347,-15.101368
11.619624,-0.010774,3.308306,-9.168174,4.217986,4.393816,-13.007264
11.653721,0.802535,3.432809,-8.954035,0.791162,3.280622,-3.079203
11.687355,0.183313,3.378938,-9.112956,-4.676342,-1.15255,9.621443
11.720068,0.52809,3.481443,-9.202742,6.527725,17.731791,14.596622
11.754015,0.092779,3.569882,-9.211571,9.468358,54.139022,3.23962
11.787836,0.767219,2.860724,-9.560239,0.052824,78.378786,26.712014
11.820521,1.729274,2.72006,-10.520498,-3.745114,-0.67489,-7.40149
11.854321,0.782184,3.961049,-9.543629,6.52563,5.633907,-8.936527
11.88805,2.557997,2.377826,-11.392467,-0.684168,4.42584,-9.371689
11.920685,0.971931,4.53493,-10.657271,0.697785,3.831308,-9.20768
11.954355,0.835457,-0.635833,-11.188653,-0.064047,3.352152,-9.233269
11.987921,2.672623,-1.723887,-8.895824,0.071978,3.452562,-9.23701
12.02054,3.912564,-0.07557,-9.535697,0.162363,3.370258,-9.224739
12.05417,1.058425,3.411111,-7.951727,0.203963,3.550429,-9.261103
12.08809,-0.657232,5.773075,-8.036874,0.754051,3.557611,-9.245689
12.120527,-0.851019,6.195817,-7.945741,-0.061952,3.485783,-9.126574
12.153955,1.232908,5.591558,-8.775212,-0.08799,3.321325,-9.089612
12.188117,1.397964,5.883362,-7.959059,0.179272,3.419491,-9.154108
12.219855,1.386292,5.759607,-8.294559,0.583907,3.500597,-9.291331
12.254047,1.379858,5.813479,-8.595641,0.084548,3.4156,-9.218454
12.287637,0.354504,3.149236,-7.767068,0.128394,3.455256,-9.326946
12.320524,1.050643,3.853755,-10.160457,-0.187652,3.864529,-9.360915
12.354886,1.082218,3.379237,-9.361064,0.162512,3.714288,-9.31258
12.386416,2.010453,3.406322,-9.200198,0.17583,3.559407,-9.166229
12.420503,2.747445,3.426375,-9.264395,0.018406,3.324468,-9.163535
12.454062,2.930757,3.244558,-9.162787,0.119265,3.65458,-9.229079
12.487229,2.087519,2.865363,-9.223243,-0.213092,3.839389,-9.200348
12.521784,1.680041,3.382529,-9.720656,-0.231647,3.666551,-9.199001
12.553768,1.830433,3.074414,-8.484456,0.019304,3.574671,-9.201246
12.58707,2.084826,2.25901,-6.425219,-0.03786,3.588139,-9.206932
12.620526,3.026379,6.546131,-12.210116,0.103852,3.733592,-9.272326
12.653748,-0.995575,8.005598,-7.746117,-0.231049,3.544443,-9.209626
12.687458,4.216639,8.630807,-6.293234,0,3.32357,-9.111909
12.71986,1.189661,8.245925,-6.347106,-0.069584,3.378339,-9.254369
12.753903,-10.157314,10.477251,-6.296227,0.337894,3.499101,-9.322606
12.787539,-11.785878,26.417218,-2.374684,0.316046,3.625849,-9.201694
12.820135,0.451173,-3.887724,-8.872779,0.349117,3.424579,-9.581788
12.853537,2.518192,3.382978,-8.249367,0.484544,2.882871,-11.021053
12.888033,-0.067938,3.410662,-9.757917,-1.267176,2.711231,-12.437424
12.920393,-0.120762,3.244708,-9.543928,3.267603,-0.496815,-18.149594
12.954006,-0.042199,3.247252,-9.365853,15.752614,-14.256334,-24.345261
12.987187,0.14665,3.185599,-9.370791,-6.317925,-11.018659,-24.17392
13.020321,0.181068,3.335541,-9.190022,-13.502582,-8.337656,-17.727751
13.05372,0.451173,3.320278,-9.199749,-5.968958,-3.199815,-18.109041
13.087391,0.40224,3.413655,-9.188825,1.122023,1.47533,-13.103934
13.119662,0.705267,3.678972,-9.179847,0.158173,2.354781,-6.194769
13.154446,0.278186,3.526186,-9.169372,-3.293342,0.402091,2.627581
13.187142,0.13393,3.542946,-9.254369,-2.40162,19.013633,11.385883
13.220294,0.212942,3.4159,-9.21606,-4.5264,33.904752,-5.396723
13.254374,0.208752,3.42832,-9.491852,8.345138,53.111275,10.752444
13.287475,0.600517,3.100602,-9.81134,-0.377549,-10.980799,-9.416881
13.321396,1.129206,3.78432,-10.752145,-4.956025,5.168817,-9.690279
13.353784,2.151417,4.042155,-11.224568,-2.712877,3.416797,-9.271428
13.387363,2.406708,2.977895,-10.15911,0.060306,3.437298,-9.012995
13.420889,1.926803,0.193937,-13.381671,-0.38144,3.995317,-9.207082
13.453584,1.988755,-1.120227,-10.333893,-0.123007,4.060861,-9.239704
13.487532,3.009469,-0.018705,-10.29738,0.162812,3.805121,-9.119391
13.520385,2.543182,0.877656,-8.760846,0.089187,4.005942,-9.218754
13.554168,2.445914,1.850934,-7.921798,0.49891,3.66311,-9.130614
13.58783,-1.128158,4.198682,-10.147887,0.842041,4.010281,-9.060431
13.620396,-3.19757,4.65629,-9.473895,0.885737,3.858992,-9.092305
13.654091,-0.474667,4.374812,-8.908694,-0.11717,3.589635,-9.126574
13.687562,0.96415,5.093098,-8.152697,0.566399,3.643357,-9.060581
13.719439,1.474432,4.468787,-8.832974,0.695241,3.803026,-9.084524
13.754102,1.053337,3.607592,-8.480415,0.457758,3.754691,-9.100985
13.787672,1.214353,4.490336,-9.739661,0.240476,3.973768,-9.14079
13.819628,0.929881,4.605561,-9.347447,0.531382,3.945636,-9.13241
13.853809,1.497327,4.572789,-9.439776,0.482299,3.844028,-9.047861
13.887041,0.131835,3.630039,-8.544313,0.603061,3.855999,-8.996235
13.921337,-0.732802,1.47937,-7.327566,-0.081555,3.572426,-9.017933
13.954523,-1.099127,3.302919,-11.401745,0.711552,3.897301,-9.070607
13.987257,2.100987,3.584547,-11.707466,0.627902,4.140321,-9.166229
14.021562,-0.105798,1.798259,-6.764909,0.040254,3.673884,-9.085123
14.053857,0.666809,1.665975,-5.894735,0.285668,3.821133,-9.043073
14.087844,0.269657,3.376095,-6.673028,0.632541,3.799734,-8.923508
14.121048,8.68812,16.518935,-16.866855,-0.084548,3.916605,-9.013593
14.154006,-3.623754,8.013081,-4.828379,0.3352,4.20766,-9.102481
14.188305,-2.043973,28.50743,1.229317,0.363183,3.95641,-9.280107
14.220545,4.484949,-6.32002,-8.186517,0.773504,3.774594,-9.652419
14.253828,-0.13842,6.823868,-8.721041,0.78383,2.185685,-10.042239
14.288203,0.089038,4.214694,-8.933385,0.609496,2.654816,-9.484669
14.319533,-0.220274,3.460044,-9.262749,1.954935,5.453588,-12.633456
14.353891,-0.244517,2.915942,-9.408651,-1.772371,5.200242,-16.193163
14.388464,0.269357,3.194129,-9.119092,2.334879,-5.06691,-38.85105
14.420396,-0.116871,3.124096,-9.381865,-7.908779,-8.673156,-19.772622
14.453211,0.161614,3.181858,-9.233868,-4.239684,-4.250309,-16.163384
14.487977,0.452371,3.266107,-9.144381,-4.520414,-0.051178,-13.827756
14.51948,0.444888,3.355893,-9.171167,-0.193488,3.277181,-13.853645
14.553966,0.387426,3.409315,-9.188676,0.220723,6.174418,-11.887187
14.587852,0.279832,3.451215,-9.137498,3.090276,16.055042,-14.937808
14.6206,0.080508,3.337038,-9.294473,3.236178,38.291535,4.423595
14.654265,0.388323,3.324168,-9.261402,3.322373,33.937374,6.583691
14.687854,0.474218,3.095664,-9.215013,4.766277,51.942713,10.107184
14.720409,1.131899,3.083094,-10.030567,-1.229167,-4.662874,-10.149683
14.754002,0.540211,3.806168,-10.402429,0.998118,5.235109,-9.784404
14.787848,0.269806,3.913163,-10.07097,0.689854,3.691392,-9.550512
14.820404,2.995403,4.218435,-11.510685,-0.043995,3.619414,-9.221298
14.853945,0.895613,-0.175681,-11.907837,-0.123007,3.624203,-9.145429
14.887757,4.504253,1.771024,-12.74898,0.687609,3.714437,-9.079885
14.920131,3.749005,-0.231498,-7.59408,0.822737,3.705309,-9.204238
14.953691,0.80867,2.20873,-8.406641,0.686711,3.421436,-9.08632
14.987174,-1.497776,2.520287,-8.839409,0.637329,3.276283,-9.370192
15.020518,0.856556,1.373722,-8.149854,-0.601864,3.807066,-8.971843
15.054682,1.593847,1.492539,-8.60417,-0.64137,3.680917,-9.055793
15.087258,1.292915,2.70734,-11.632943,-0.136175,3.861686,-9.161291
15.119829,5.09205,3.146842,-12.175998,0.197828,3.507631,-9.129267
15.154681,1.452734,1.691115,-8.022358,0.182115,3.664456,-9.080933
15.186928,5.250971,4.716446,-13.035996,0.257835,3.867073,-9.164583
15.219772,2.889007,4.200178,-10.820681,-0.075121,3.590234,-9.197504
15.254711,1.23231,3.464085,-9.854736,-0.213391,3.694086,-9.043223
15.287195,1.229616,3.560904,-7.674139,0.16775,3.832206,-8.914979
15.321451,-0.836055,7.120311,-9.778867,0.344628,3.725511,-9.035291
15.353893,1.963914,5.452989,-8.245177,-0.005986,3.976612,-9.281155
15.387165,0.216683,6.487022,-9.301207,0.405832,3.500298,-9.245989
15.421066,1.949698,5.074093,-7.058658,0.156975,3.99427,-9.066866
15.453281,0.203814,2.999743,-3.91436,-0.038309,4.194043,-9.112058
15.486951,1.597289,4.182221,-6.397685,0.392214,4.083606,-9.159495
15.520556,-18.257188,18.103804,5.964618,0.044444,3.640963,-8.746481
15.554199,-5.413783,1.328829,-10.513764,-0.20112,3.620611,-9.410297
15.587041,5.4904,5.555794,-9.008356,0.69135,-0.777994,-11.784681
15.620947,-2.235366,3.211637,-10.050619,-0.087092,2.155158,-15.468741
15.653726,-0.05881,3.356342,-9.045617,2.592863,-1.89433,-26.030391
15.687228,-0.18855,3.244409,-9.299411,0.179422,-16.738761,-26.174646
15.720932,-0.15922,3.09312,-9.244492,-5.021419,-13.178306,-20.250881
15.753926,0.352409,3.319829,-9.23716,-3.97751,-7.527489,-15.13818
15.787341,0.539313,3.476804,-9.201246,1.381803,1.07698,-15.663726
15.820925,0.314101,3.452263,-9.210074,-0.673244,1.939223,-8.470539
15.853338,0.171042,3.606096,-9.169521,-1.556137,-1.970798,4.337401
15.887163,-0.062401,3.736435,-9.07345,9.221447,42.322766,-30.930449
15.920561,0.05851,3.072469,-8.974536,-4.570545,65.504554,-1.949399
15.952963,0.413463,3.423531,-9.415235,1.138633,65.705375,15.445397
15.98733,0.472872,3.505536,-9.241948,0.433965,-3.397793,-11.217684
16.02067,0.976121,3.33195,-9.783806,2.85833,5.740004,-8.961817
16.053712,1.011287,3.053464,-10.072616,0.339989,3.339731,-9.204987
16.086846,0.375604,2.650326,-9.909356,-0.706464,3.919747,-9.363907
16.120965,1.755162,1.292167,-10.140854,-0.273996,3.313993,-9.2412
16.15414,1.208816,0.735794,-10.363971,-0.312155,3.707703,-9.410147
16.188819,3.002735,0.895613,-12.297657,0.622515,3.564794,-9.333081
16.220621,3.041194,-0.434862,-8.844946,0.530484,3.293043,-9.301357
16.254848,3.078754,0.302578,-9.037536,0.458356,3.634528,-9.288338
16.287602,1.864252,-0.027085,-8.658042,-0.094724,3.44493,-9.288637
16.320084,2.607828,1.438667,-11.53792,-0.167899,3.358287,-9.277114
16.354367,1.23201,1.231861,-9.856831,-0.021399,3.754841,-9.172215
16.387645,1.741395,2.763307,-10.381779,0.02529,3.796741,-9.218155
16.420833,0.934221,2.288939,-8.940717,-0.258433,3.443135,-9.114153
16.454111,1.375368,3.273439,-10.358434,-0.033221,3.62929,-9.151115
16.488078,1.249818,5.000319,-10.461389,0.109688,3.715485,-9.217108
16.519833,-0.5866,4.829277,-8.769226,0.051178,3.602953,-9.273822
16.554776,-1.818162,5.206078,-9.899629,0.338343,3.506733,-9.178949
16.587081,1.581876,5.777116,-9.166079,0.205759,3.530077,-9.207979
16.620508,-0.779789,4.854866,-7.51462,0.114178,3.492966,-9.2204
16.654778,0.375604,3.753943,-7.505791,0.04609,3.709649,-9.110562
16.687204,-0.576425,3.184252,-9.4507,-0.067639,3.548034,-9.075097
16.721142,0.777545,2.974602,-9.881073,-0.018107,3.804373,-9.269183
16.754736,-0.609047,3.366966,-8.474729,-0.135277,3.529778,-9.133158
16.787214,-0.032323,4.244921,-7.798044,0.009128,3.900892,-9.138994
16.821297,-0.140664,9.590766,-9.677858,0.19693,3.346465,-9.107419
16.854172,-0.300483,14.052221,-1.141177,0.005537,4.430329,-9.451748
16.887237,7.517463,30.708977,-3.502543,0.663367,4.263477,-9.838126
16.920689,-6.356533,-10.505384,-15.370575,0.037261,2.502329,-9.893793
16.954429,3.125143,5.315317,-9.820169,-0.182564,2.66544,-10.061393
16.987048,-0.777694,3.973469,-9.573557,0.043845,2.683098,-12.555941
17.020504,0.136474,3.119158,-9.546621,2.266492,2.305549,-15.591598
17.054188,0.527491,3.652934,-9.385456,-5.694662,-7.7952,-36.622717
17.087141,0.151139,3.220316,-9.444715,-3.706357,-10.217321,-20.600596
17.120529,0.627303,3.223608,-9.215162,1.413827,-5.468253,-15.839107
17.154329,0.676985,3.390011,-9.190771,-0.936017,-0.119864,-11.787824
17.188495,0.69554,3.324168,-9.152013,-1.582175,2.869703,-12.582278
17.220324,0.410471,3.422933,-9.137947,-0.0419,3.707853,-10.267152
17.253949,0.374107,3.224656,-9.165331,-3.987985,4.239385,-0.829022
17.287314,0.57433,3.357389,-9.114752,-1.673906,35.408514,-43.110188
17.320579,0.449378,3.39076,-9.313328,-6.133415,27.092407,20.935348
17.354597,0.382936,3.200114,-9.351038,1.168861,33.770971,3.161955
17.387425,-0.017209,3.203407,-9.537194,9.762556,47.694499,6.115758
17.420792,0.952028,3.077407,-9.623837,-6.002927,4.252254,-9.380817
17.454186,1.080572,3.831608,-10.479047,1.049446,2.960237,-9.205286
17.487226,0.703621,3.639915,-9.390693,1.194001,3.612979,-9.124778
17.520503,0.616828,3.132326,-10.746159,-0.113878,3.685406,-9.252723
17.55396,0.969088,0.849972,-11.156031,0.080209,3.512868,-9.181044
17.587199,1.064261,0.329065,-9.910852,0.360041,2.904719,-9.257661
17.620679,4.584162,0.747766,-11.112635,0.299884,3.396446,-9.167725
17.653855,3.466778,0.125401,-10.324615,0.464043,3.575868,-9.297765
17.687358,1.452434,0.228505,-9.078688,0.321283,3.561203,-9.247336
17.720469,1.313715,0.795652,-9.696414,0.15069,3.482341,-9.181942
17.754071,1.914382,1.510646,-11.224568,0.146351,2.881525,-9.348644
17.787266,2.138697,2.207682,-10.107633,0.202168,3.406023,-9.276366
17.820639,2.329791,2.800268,-10.176469,0.112083,3.472764,-9.204238
17.853848,1.872781,2.681751,-9.326048,0.313502,3.489374,-9.204388
17.8872,2.235516,3.469322,-9.785003,0.386079,3.571379,-9.259457
17.920309,1.22782,3.502692,-9.695067,0.21369,3.617768,-9.222196
17.95463,0.66217,4.06116,-9.981035,0.180469,3.552823,-9.28744
17.987,-0.178374,4.449184,-7.942748,0.038608,3.162404,-9.196457
18.020507,-0.905041,4.089442,-7.28402,0.217431,3.707404,-9.184336
18.054615,-0.847129,6.248192,-10.059897,0.596926,3.515113,-9.121785
18.086993,1.004553,7.361535,-10.518852,0.076767,3.367565,-9.093503
18.120508,0.810466,5.324595,-6.817583,0.382188,3.562699,-9.281753
18.154905,1.58008,5.220893,-6.314633,-0.317692,3.504039,-9.286093
18.186939,2.043973,9.867157,-9.162039,0.20516,3.742271,-9.2204
18.220643,-1.928,12.396122,4.358052,-0.167899,4.110991,-9.171467
18.254029,5.229273,28.921941,-18.319738,0.370815,3.504787,-9.530161
18.286983,0.823934,-5.334921,-7.171189,0.846829,2.946769,-9.806402
18.320505,1.443007,1.016076,-10.555813,-0.502052,2.991662,-9.663193
18.354133,0.038458,3.659818,-9.686538,-1.268972,4.298793,-10.112571
18.387274,0.644662,3.574671,-9.233419,-2.170122,2.214716,-12.895331
18.420825,-0.256039,3.00483,-9.280556,0.49023,-2.084227,-26.845047
18.454061,-0.388922,3.031766,-9.45504,-3.033412,-8.286777,-19.738204
18.487217,0.631793,3.101799,-9.080783,-3.198019,-5.674311,-18.263173
18.520454,0.015563,3.341976,-9.344155,-7.175679,-4.09902,-15.630355
18.554014,0.062251,3.241117,-9.194811,-3.931569,-1.353969,-14.076613
18.587317,0.520907,3.341677,-9.219801,0.17164,1.336611,-11.069687
18.620806,0.678032,3.421137,-9.112058,1.723587,0.953226,-7.902794
18.654743,0.473021,3.366667,-9.187778,2.37199,-2.778121,-0.712749
18.687063,0.478708,3.376543,-9.289834,3.167642,-5.946362,21.716484
18.72063,0.265616,3.457949,-9.151863,7.479753,54.536923,16.74729
18.755384,0.803433,3.165397,-9.104576,-4.94974,47.122414,7.681921
18.786458,0.468831,3.066783,-9.356126,1.758604,-9.94527,-4.616485
18.820561,1.133845,3.09701,-9.951256,1.939073,4.030034,-8.90585
18.855392,1.197892,3.670143,-9.509809,-1.063812,3.459446,-9.286841
18.887201,0.731155,4.051433,-8.685576,-0.839946,2.329492,-9.023021
18.921192,2.265594,4.74428,-10.981398,-0.007183,3.762473,-9.355827
18.954631,1.354867,4.986552,-11.946445,0.756295,3.761425,-9.247485
18.9872,1.007546,0.83411,-10.273587,0.39805,3.454208,-9.242248
19.021401,1.677348,-0.158921,-11.26991,0.441746,3.399439,-9.222644
19.053579,3.299328,-0.150242,-10.725957,0.480504,3.546089,-9.242846
19.087168,3.326862,0.437556,-8.950444,0.301381,3.37804,-9.198552
19.121418,3.134571,0.770661,-9.330238,-0.135876,3.542497,-9.253471
19.153846,2.026465,1.762495,-10.450315,0.335649,3.47875,-9.284148
19.187318,2.086322,5.170762,-10.618664,0.263222,3.512719,-9.252573
19.220515,1.987707,3.317584,-5.66204,0.152636,3.456303,-9.177901
19.252919,2.573859,4.653447,-9.917886,0.271452,3.457949,-9.314525
19.286506,1.897024,4.066846,-8.955981,0.437406,3.363824,-9.275917
19.320766,1.962867,3.883384,-8.727476,0.335051,3.465581,-9.198851
19.353855,1.350677,2.960237,-7.147995,0.233443,3.573025,-9.261252
19.387041,1.561075,4.68128,-9.708236,0.198726,3.287805,-9.169072
19.421154,1.530398,6.307749,-10.706055,0.214588,2.871199,-8.801848
19.453972,-0.597075,5.844605,-9.166229,0.392513,4.117426,-9.441273
19.487268,-0.916563,5.518832,-8.020413,-0.222669,3.410363,-9.32919
19.521187,-0.238232,3.097759,-6.960642,0.241524,3.560455,-9.201246
19.554074,0.947988,3.487579,-9.127023,0.043097,3.749903,-9.212469
19.588261,1.816366,4.603466,-10.80886,-0.152785,3.512719,-9.418826
19.620782,-0.075869,4.184615,-5.028751,-0.20097,3.657423,-9.265742
19.653134,3.383876,13.406063,0.716939,0.351661,3.069476,-9.01479
19.687245,-6.548076,28.079751,3.388066,0.097866,3.447325,-9.456237
19.720962,1.432682,6.121294,-11.014918,0.727414,2.389349,-9.963976
19.753322,-0.203514,3.976312,-9.454142,0.00434,2.212621,-10.049272
19.787261,0.945444,3.268501,-9.458033,0.091731,3.687651,-11.292955
19.820394,0.605006,3.546837,-9.284597,2.520586,2.579395,-13.242204
19.853349,0.329514,3.19772,-9.336373,-0.943798,1.730471,-23.982826
19.888062,-0.170743,2.867159,-9.314376,-5.469599,-5.513744,-32.507686
19.920504,-0.042798,3.034609,-9.321558,-6.273481,-5.772028,-19.598437
19.953984,0.398649,2.899182,-9.1785,-0.290307,-2.874491,-14.001642
19.987997,0.549639,3.149236,-9.198702,-1.128906,0.116871,-12.302596
20.020417,0.368421,3.311449,-9.246887,-1.166467,2.414938,-12.3216
20.053841,0.387575,3.066633,-9.220998,-0.495169,5.768436,-11.376306
20.088002,0.326671,3.287057,-9.21621,-6.079544,6.976803,-4.246568
20.120561,0.239279,3.249497,-9.232521,-5.51958,9.64793,1.234405
20.153657,0.378896,3.246504,-9.337271,-2.005664,29.634092,-3.668946
20.187859,0.264868,3.185599,-9.37962,9.774378,50.966293,9.139293
20.220395,0.752405,2.550065,-9.458631,-4.138226,27.728539,-18.854113
20.253839,1.541921,2.936593,-10.393451,-5.980929,6.44991,-8.911836
20.288283,0.492774,3.10554,-9.833337,3.647696,3.046281,-9.31692
20.319837,1.017123,2.561289,-11.729613,0.873167,3.41156,-9.414636
20.353529,2.378874,1.25311,-12.543521,0.958014,3.293941,-9.24973
20.387858,2.135854,-0.43157,-11.206162,0.422442,3.403928,-9.180295
20.420219,3.5205,1.529949,-12.617594,0.136624,3.643955,-9.364356
20.453721,3.171383,-0.391915,-8.097629,0.531981,3.014108,-9.097393
20.487365,3.012761,1.387489,-8.872181,0.372761,3.56674,-9.30839
20.520712,1.664778,2.094103,-8.962715,0.214139,3.632732,-9.238656
20.553952,1.329129,2.641348,-8.888342,-0.028731,3.2691,-9.280107
20.587949,-0.537667,2.355679,-8.982767,-0.195434,3.438645,-9.197056
20.620422,0.718885,3.919298,-11.255694,0.218628,3.508977,-9.282801
20.653846,0.20965,4.708665,-10.291694,0.152486,3.117512,-9.197205
20.687411,1.300397,3.948628,-8.36953,0.361088,3.262067,-9.152312
20.719581,1.954786,3.521847,-7.659624,0.105798,3.462588,-9.224739
20.753219,1.642631,4.556179,-9.730682,0.017957,3.74272,-9.231623
20.786395,1.402603,4.160672,-8.66283,0.063898,3.533369,-9.234017
20.819441,1.151502,3.981849,-8.117531,0.252897,3.562999,-9.228481
20.853304,1.724785,5.031744,-8.258345,0.126897,3.44074,-9.12822
20.887387,0.795502,6.022829,-9.54722,-0.702274,3.702167,-9.246587
20.920893,1.25296,6.050663,-8.708771,0.137372,3.51631,-9.240153
20.953993,0.164009,4.876115,-6.39125,0.019304,3.366368,-9.4088
20.987211,1.493137,4.826584,-5.817818,-0.161315,3.460044,-9.259457
21.020533,6.819678,13.85963,-7.880198,-0.118218,3.693786,-9.208728
21.053915,-9.37528,15.380003,-5.525566,0.066292,3.772648,-9.348644
21.087174,-15.592047,24.85704,-3.215977,0.166553,3.682264,-9.461624
21.119795,6.083584,7.491575,-10.622405,0.75435,2.590319,-10.141452
21.154369,-1.173201,4.757897,-9.880325,-0.246163,1.419214,-10.563445
21.187197,1.229766,3.511222,-9.625783,0.130189,5.848795,-12.592753
21.220958,0.595729,3.171533,-9.226386,0.941703,4.336054,-17.705604
21.254031,0.576874,3.364572,-9.225039,5.465858,-6.075354,-27.390645
21.287045,0.288961,3.152079,-9.301357,-1.170208,-7.708108,-20.8924
21.320932,0.622215,3.367715,-9.173711,-4.825237,-5.059278,-14.825426
21.353943,0.66217,3.339133,-9.186132,-4.363139,-1.494783,-14.147843
21.387176,0.585553,3.357688,-9.191369,-3.337038,1.110949,-12.941721
21.42016,0.488285,3.286458,-9.206333,-2.743105,3.229594,-10.967332
21.453589,0.280132,3.306511,-9.245839,-5.844156,1.287378,-0.076468
21.487058,0.190196,3.371306,-9.327694,5.126917,21.673387,-18.974426
21.520366,0.497413,3.430565,-9.318416,3.504488,57.260425,16.551408
21.553987,0.954123,3.167193,-9.348195,1.510346,57.516913,12.320253
21.58705,0.814806,3.012013,-10.2682,0.814357,-7.352856,-11.975775
21.620517,0.721429,3.983795,-10.058849,3.359185,5.613855,-9.590168
21.654077,0.889927,2.853242,-10.079799,0.294797,3.633331,-9.427655
21.687099,2.139744,3.907327,-10.127984,-0.299136,3.649343,-9.187927
21.720754,0.7545,0.36064,-12.038176,0.215336,3.538607,-9.242248
21.753885,2.481828,0.519111,-11.986101,0.635683,3.627495,-9.289684
21.787168,6.079694,-1.587562,-9.621144,0.228505,3.873358,-9.239105
21.821224,4.563062,-0.868977,-8.834321,0.035914,3.75918,-9.19945
21.853882,1.925755,0.661422,-9.433042,-0.356001,3.777736,-9.193464
21.887174,0.922698,2.346252,-10.081146,0.084848,3.641262,-9.152911
21.921748,0.191244,3.323719,-10.394947,0.056116,3.47875,-9.265442
21.953383,0.890376,3.932467,-11.058464,0.38548,3.609538,-9.179847
21.987229,1.005152,3.688699,-9.148272,0.208752,3.773995,-9.073301
22.021434,2.556949,3.821582,-8.917672,0.033221,3.78028,-9.074947
22.053728,2.482128,4.260784,-9.55964,0.231647,4.006391,-9.072702
22.087201,1.398114,3.509726,-8.479218,0.109688,3.815147,-9.121935
22.120762,0.96804,4.062507,-9.352535,0.039955,3.902838,-9.110861
22.154014,1.378212,3.777736,-8.634099,0.204861,3.922591,-9.300908
22.187173,1.610308,4.114134,-9.395482,0.335799,3.716233,-8.996384
22.221322,1.733913,2.972208,-7.28806,0.225811,4.015668,-9.091108
22.253367,0.260977,2.419726,-5.903265,0.225961,3.994419,-9.15336
22.286489,0.659626,5.567167,-9.845159,0.182864,3.884731,-9.23282
22.321188,-2.046218,12.102074,-8.618835,0.158771,3.440441,-8.840007
22.353914,-3.133374,20.617955,4.624266,0.368571,4.455918,-9.222196
22.387055,3.803624,26.518526,-9.927014,0.353606,3.534267,-9.189873
22.420694,-0.131387,7.009425,-11.010578,-0.012869,3.054512,-9.546173
22.453975,2.69073,0.580166,-6.679463,-0.548741,2.947068,-10.415748
22.487183,-1.838813,2.68654,-9.717963,-0.868378,2.742506,-14.158767
22.52146,-0.608149,2.763606,-9.530161,-0.058361,-0.440399,-25.394857
22.553874,0.422741,3.099704,-9.322606,3.672088,-8.848537,-31.604441
22.587163,0.347621,3.066932,-9.167127,-0.973128,-8.141175,-17.772494
22.622531,0.531532,3.396745,-9.204089,-3.719824,-4.479711,-14.387271
22.65296,0.446385,3.421436,-9.283998,-0.28911,-1.36609,-12.687777
22.687047,0.313652,3.377741,-9.17012,3.476355,1.853178,-11.130742
22.720689,0.379794,3.252789,-9.116997,-1.368485,2.281456,-5.924364
22.753345,0.221023,3.477852,-9.195709,-5.87184,3.694086,0.40239
22.787968,0.466287,3.358736,-9.213666,-7.192139,16.566372,12.0075
22.820564,0.01691,3.330603,-9.263497,5.558787,53.171581,9.817326
22.853709,0.478109,3.211637,-9.266639,3.690794,57.428025,11.216038
22.887589,0.305571,3.258924,-9.516842,-0.895912,-1.169609,-12.794173
22.920528,1.24039,3.330304,-10.179611,2.900978,5.70828,-9.422717
22.953893,1.210611,2.673072,-10.409014,1.731818,3.241865,-9.047413
22.988454,1.625422,2.427807,-10.450016,0.140066,3.678523,-9.37962
23.020395,2.28834,5.088459,-10.890265,0.014665,3.122749,-9.286692
23.053831,1.168113,0.906387,-10.343769,0.237184,3.303069,-9.228929
23.08804,3.199965,1.026551,-10.699321,0.342533,3.406322,-9.313777
23.120576,4.837657,0.370067,-10.517355,0.127795,3.311,-9.31677
23.153823,3.407071,1.116187,-9.566225,0.352858,3.415151,-9.302255
23.187477,2.878831,2.043225,-9.755972,0.143358,3.274337,-9.30001
23.220441,2.228183,2.621146,-9.093203,0.090684,3.286009,-9.289535
23.253958,1.937876,3.096711,-9.813285,0.068985,3.451664,-9.36705
23.287652,0.937663,3.161656,-8.852727,0.130339,3.435503,-9.29163
23.32022,1.379858,3.731197,-9.292378,0.265616,3.379237,-9.272176
23.353822,1.820406,3.9817,-9.885862,0.20935,3.422185,-9.213965
23.387451,1.458719,3.744067,-9.127771,0.199624,3.460044,-9.301057
23.419906,0.956518,3.997711,-9.345202,0.083201,3.367266,-9.211272
23.453841,-0.40643,4.210204,-10.158811,0.199324,3.42832,-9.223692
23.48885,-1.200136,5.634356,-9.41329,0.333704,3.663409,-9.267537
23.519875,-2.880776,4.461455,-7.031722,-0.109239,3.445678,-9.456237
23.553891,-0.247958,3.847769,-6.554361,0.010026,3.661913,-9.311383
23.588981,3.06768,9.418677,-14.493967,0.042648,3.348261,-9.311981
23.620399,-2.694022,4.389776,-7.962651,-0.047736,3.070524,-9.269932
23.654081,-0.480952,8.164818,-3.837893,0.116721,3.275534,-9.214264
23.688188,-7.723072,27.993257,-8.402003,-0.209949,4.093483,-9.502177
23.720426,-5.06706,26.820954,-2.332634,0.495917,2.917589,-9.533752
23.754116,-2.385458,-1.918123,-7.607398,0.243918,2.202445,-9.894392
23.787342,0.233293,4.657936,-9.132709,-0.287314,3.23139,-10.478149
23.82062,1.349929,3.540402,-9.464617,0.694792,5.106117,-13.623793
23.855347,0.187054,3.294539,-9.364057,-1.758155,6.409357,-20.386008
23.887389,0.417055,3.291097,-9.298513,-2.530013,-5.732971,-29.486544
23.92069,0.334003,3.258026,-9.27053,-5.555345,-10.263262,-18.961707
23.954132,0.399846,3.290798,-9.217706,-7.101306,-2.491405,-15.215396
23.987585,0.725319,3.343622,-9.178949,-3.022039,-0.702723,-11.294002
24.020508,0.577771,3.149685,-9.189124,-1.000812,2.453246,-9.709134
24.054031,0.245115,3.341377,-9.222196,-0.479755,1.960622,-6.244899
24.087246,0.432318,3.320427,-9.181942,-2.768245,-1.310124,1.520073
24.12084,0.571187,3.376394,-9.209626,-8.023406,1.599982,23.691172
24.153929,0.585254,3.349757,-9.250328,0.90534,32.577868,7.261873
24.186795,-0.019603,3.44493,-9.378273,9.505619,54.212647,11.067592
24.219616,0.639574,3.257278,-9.286841,2.934349,-11.504699,-4.364486
24.254228,1.725383,3.417097,-9.945869,0.843238,3.934712,-9.12388
24.287428,1.088204,2.924771,-10.354993,-0.984052,4.231154,-9.418377
24.320417,0.758839,3.46603,-10.119604,-0.606353,3.800482,-9.300758
24.353436,0.533028,3.570331,-10.028322,-0.024392,3.4786,-9.205884
24.387787,0.473171,3.004381,-11.171893,0.546795,3.564794,-9.049208
24.420535,0.307816,1.39542,-11.322434,0.232994,3.532471,-9.190771
24.453986,1.059622,1.531446,-12.66099,0.420048,3.573922,-9.336373
24.487515,6.613919,-0.790115,-10.38956,0.625807,3.751698,-9.177602
24.519668,6.891207,-0.416756,-9.453693,0.635833,3.491769,-9.23297
24.553982,3.838641,1.539527,-10.373249,0.022297,3.474709,-9.206932
24.5871,1.09823,2.161592,-10.447771,0.257835,3.653682,-9.302703
24.620558,-0.183313,1.83552,-10.28481,0.76707,3.407669,-9.490954
24.653987,-0.944097,2.453845,-10.453907,0.47377,4.234297,-10.059298
24.687062,-1.133246,3.138312,-10.140854,0.524648,2.169972,-8.372224
24.720811,-0.753602,3.419491,-9.288936,-0.408825,1.828038,-8.998779
24.754066,0.113878,4.175188,-9.852641,1.176792,3.622108,-9.822713
24.787166,0.000898,4.720636,-8.346186,-0.057613,1.846744,-9.083028
24.821435,-0.839497,3.565991,-6.924578,0.943349,3.004381,-9.405957
24.852733,-0.147997,4.411773,-7.296141,0.380841,1.936978,-8.651008
24.887127,3.694235,9.76091,-6.904226,0.288063,2.510709,-8.840307
24.920711,2.035593,2.434541,-6.615864,0.928385,5.445357,-14.626999
24.95411,-2.903971,5.280451,-8.946703,0.011373,2.6192,-9.429451
24.989062,-1.182778,11.540913,-5.805099,0.446535,3.696181,-9.346399
25.020597,-1.858266,22.818305,-2.183889,-0.824533,3.431013,-9.331285
25.053873,8.353518,25.442144,-1.256402,-0.621916,2.788596,-9.785302
25.087362,-5.715014,-1.378062,-8.727626,-1.376117,0.349416,-11.056968
25.120537,0.643614,3.533519,-9.209925,1.221685,2.203941,-15.098225
25.15419,0.877207,3.033861,-9.235663,-11.821643,6.143442,-25.782732
25.187375,0.424387,3.150882,-9.276965,-11.916517,-10.424577,-11.715097
25.220844,0.482449,3.158214,-9.345052,5.038029,-3.272542,-14.728457
25.254789,0.644961,3.262067,-9.239554,1.365941,-5.035036,-10.82547
25.287202,0.524648,3.139958,-9.261402,0.203065,-1.706079,-10.28885
25.320825,0.668006,3.235729,-9.179996,1.275108,-1.312069,-8.296355
25.355646,0.568045,3.226901,-9.215911,2.002372,-0.598422,-7.477508
25.387335,0.484993,3.307259,-9.169521,-8.577983,18.921602,-28.78831
25.421099,0.584655,3.286758,-9.142436,-9.694319,18.11787,23.487358
25.454785,0.878554,3.309054,-9.38381,23.831687,43.928286,10.826667
25.486462,0.928983,3.461541,-9.33353,-2.02003,-4.860403,-11.099616
25.520857,0.319338,3.421137,-9.157699,-7.406578,5.444609,-10.216274
25.554818,0.411368,3.488327,-8.973489,2.947517,2.447261,-8.894029
25.587208,1.024456,3.111227,-9.53031,-0.17583,3.860788,-9.403413
25.620926,1.16916,3.345717,-9.463869,0.352858,3.625549,-9.188975
25.654749,0.497413,3.437747,-9.339067,0.642417,3.928876,-9.273373
25.687065,0.302877,3.653233,-8.932636,0.535123,3.563896,-9.279209
25.721199,0.610543,4.124459,-8.57065,0.54919,3.4994,-9.375879
25.754801,0.956667,3.86842,-8.863202,0.544102,3.601756,-9.246737
25.787104,0.513425,2.712578,-8.988154,-0.031874,3.644255,-9.30001
25.820505,0.420048,3.071721,-8.991147,0.371863,3.223159,-9.290433
25.855122,1.230813,6.941936,-7.866131,0.224764,3.397194,-9.271877
25.887093,-1.527555,2.744152,-9.338917,0.330112,3.453909,-9.456836
25.920499,2.019432,3.825023,-9.145279,0.917611,3.533369,-9.441722
25.95478,0.445487,3.773845,-9.083028,0.359442,3.091474,-9.201246
25.988244,0.182564,3.463187,-9.186431,0.3982,3.64635,-9.341461
26.019847,0.450874,3.434006,-9.164134,-0.552332,3.301423,-9.248832
26.053843,0.61174,3.548334,-9.117445,0.53632,3.308755,-9.38366
26.087322,0.395207,3.37819,-9.24135,0.009428,4.028538,-9.478235
26.121365,0.059857,3.385372,-9.054595,0.085446,3.261019,-9.204238
26.153978,1.284685,3.542647,-8.976332,-0.520757,4.345781,-9.101134
26.187264,0.028881,3.458697,-9.210523,0.25993,3.627345,-9.323354
26.221204,0.631793,3.321176,-9.032149,-0.010176,3.344819,-9.243744
26.253906,0.650498,3.384624,-9.224889,0.521356,3.871263,-9.42571
26.287754,0.391765,3.301572,-9.184336,0.418252,3.467526,-9.368247
26.320994,0.034268,3.292893,-9.373036,-0.546047,3.425327,-9.336373
26.353775,0.423639,3.380285,-9.1363,0.510582,3.347363,-9.120139
26.387196,0.443841,3.187544,-9.119989,0.476014,3.619264,-9.420023
26.421284,0.947389,3.383876,-9.140191,-0.000748,2.965624,-9.122384
26.452819,-1.129954,3.220316,-9.172215,0.94724,3.231988,-8.967503
26.487171,0.684467,3.294539,-8.96062,0.218778,3.383427,-9.223842
26.521193,0.463893,3.377142,-9.141837,-0.284771,3.508678,-9.486615
26.554049,0.691799,3.34437,-9.176554,-0.176429,3.38223,-9.330387
26.587313,0.199923,3.358287,-9.175357,0.163709,3.256679,-9.281155
26.621201,0.602762,3.308456,-9.074797,0.069135,3.475009,-9.347447
26.654213,0.378746,3.317883,-9.242248,0.260828,3.180661,-9.260953
26.686557,0.318291,3.251442,-9.374083,0.465539,3.513916,-9.31692
26.721491,0.242571,3.390311,-9.091108,0.078114,3.4994,-9.320062
26.754336,0.647505,3.383726,-9.14064,0.131985,3.472016,-9.295371
26.787537,0.527342,3.38657,-9.182391,0.119714,3.345867,-9.251376
26.820669,0.581662,3.382978,-9.133008,-0.073774,3.279575,-9.178799
26.855284,0.302728,3.274188,-9.181343,0.201719,3.663559,-9.356425
26.887913,0.346423,3.297233,-9.200048,0.245714,3.557162,-9.306893
26.920163,0.472572,3.345717,-9.16593,0.148745,3.473063,-9.254668
26.954013,0.485292,3.368163,-9.174908,0.349267,3.514664,-9.281604
26.987949,0.469879,3.369361,-9.163236,0.107294,3.4578,-9.230276
27.019705,0.517765,3.399588,-9.151564,0.18421,3.631236,-9.343556
27.053442,0.575676,3.363973,-9.201096,0.142011,3.365919,-9.275169
27.08737,0.508786,3.421736,-9.138695,0.145902,3.314741,-9.211571
27.12082,0.543354,3.497006,-9.091108,0.153683,3.342275,-9.250179
27.153678,0.34373,3.472914,-9.10308,0.157574,3.420688,-9.266191
27.188029,0.550387,3.408567,-9.137947,-0.047736,3.362178,-9.226386
27.220164,0.575078,3.406622,-9.160094,0.358096,3.350955,-9.268884
27.25426,0.524499,3.478151,-9.092006,0.341485,3.410063,-9.269483
27.28805,0.527791,3.46618,-9.147224,0.160866,3.381931,-9.272476
27.320224,0.566847,3.486232,-9.095747,0.103254,3.366218,-9.277264
27.354095,0.765723,3.464534,-9.052051,0.026487,3.521099,-9.314974
27.387384,0.674291,3.454058,-9.242248,-0.38997,3.075312,-9.309437
27.420601,0.396703,3.492217,-9.163236,0.562807,3.311898,-9.242846
27.454005,0.356749,3.349159,-9.106372,,,