time_tick,acc_X_value,acc_Y_value,acc_Z_value,acc_X_value,acc_Y_value,acc_Z_value
0.019175,1.05184,2.86252,-9.419575,-1.05618,3.241715,-9.162787
0.052547,1.025204,2.844563,-9.360915,-0.878105,3.248599,-9.162937
0.085871,1.000662,2.868955,-9.415983,-0.822587,3.322373,-9.229977
0.118838,0.911026,2.90876,-9.545724,-0.888729,3.251143,-9.176405
0.151998,0.913121,2.892149,-9.503375,-0.806575,3.205502,-9.198552
0.185867,0.960259,2.817777,-9.440674,-0.792359,3.246504,-9.270979
0.219254,1.012035,2.819123,-9.441871,-0.986746,3.279276,-9.10727
0.252604,1.041216,2.872546,-9.538092,-0.861345,3.267304,-9.179847
0.285894,0.93033,2.849052,-9.327245,-0.813459,3.294988,-9.213067
0.319249,0.859848,2.955448,-9.510109,-0.870323,3.21463,-9.192566
0.352573,0.995425,2.896489,-9.50966,-0.913271,3.204454,-9.085572
0.385913,0.873017,2.828252,-9.364955,-0.761383,3.395398,-9.251526
0.41923,0.986895,2.910406,-9.438729,-0.967891,3.093868,-9.062078
0.45261,0.961755,2.864316,-9.407154,-0.698084,3.320727,-9.281454
0.485917,1.025952,2.920432,-9.401168,-0.700928,3.263563,-9.355677
0.519193,0.9848,2.888857,-9.466263,-0.950233,3.031616,-9.14917
0.552568,0.940955,2.82885,-9.431995,-0.897858,3.16435,-9.129866
0.585826,0.900701,2.867907,-9.437083,-0.679678,3.577364,-9.339366
0.619219,1.002757,2.840672,-9.424662,-0.73759,3.368014,-9.193165
0.652551,1.02281,2.920432,-9.427356,-0.689555,3.166744,-9.384857
0.685888,0.922848,2.849202,-9.450551,-0.908333,3.067082,-9.052051
0.719265,0.927188,2.838427,-9.384408,-0.950831,3.305313,-9.174459
0.752547,0.965347,2.786052,-9.374233,-0.794305,3.245606,-9.284896
0.785916,1.010838,2.876287,-9.407304,-0.906836,3.052866,-9.129267
0.818841,0.923746,2.802214,-9.370641,-0.924045,3.181559,-9.108766
0.852555,0.751208,2.969814,-9.65197,-0.543653,3.284513,-9.320361
0.885874,1.016824,2.861173,-9.424662,-1.078028,3.544293,-9.15336
0.919225,1.074137,2.865064,-9.371838,-0.859699,3.396296,-9.181493
0.952551,1.067702,2.913249,-9.361363,-0.697785,3.300824,-9.330836
0.985878,1.003805,2.867907,-9.467161,-0.918508,3.23124,-9.220549
1.019074,0.966993,2.986424,-9.527467,-0.984651,3.276133,-9.113255
1.052583,0.786523,2.698811,-9.356575,-0.924644,3.293791,-9.17416
1.085915,1.15689,2.834686,-9.353133,-0.819295,3.221364,-9.209027
1.119249,1.083864,2.903971,-9.443517,-1.184125,2.475543,-8.845844
1.152578,1.084612,2.842917,-9.324551,-1.038821,3.316836,-9.056391
1.185916,0.962354,2.853541,-9.457434,-0.928385,3.435203,-9.185982
1.219251,1.01024,2.789943,-9.39623,-0.914169,3.265808,-9.236561
1.252616,1.118282,2.941382,-9.419126,-0.672046,3.553421,-9.173113
1.285972,1.058125,2.935097,-9.44262,-0.568643,2.898285,-9.339815
1.319329,1.079075,2.684894,-9.217557,-0.962803,3.13083,-9.197953
1.352639,1.205823,2.965025,-9.399672,-0.123156,2.499935,-10.127535
1.385623,1.135341,2.91714,-9.424214,-0.181517,1.390632,-10.007821
1.419226,1.134742,2.961733,-9.32515,-1.623925,0.940955,-9.188526
1.452668,1.14851,2.941681,-9.418527,-0.546646,3.506434,-8.643377
1.485971,1.071443,3.023087,-9.534051,-1.057826,11.153637,-6.065029
1.519,1.138035,3.119607,-9.654364,-0.917162,2.90008,-10.529925
1.552638,1.322694,2.881974,-9.515346,-1.463358,3.157616,-9.109963
1.585974,1.01428,3.094167,-9.556049,-0.969537,3.519602,-9.357323
1.61933,0.37725,3.296933,-9.824508,-0.965945,3.364422,-9.276516
1.652642,-1.756359,2.085274,-9.461624,-1.031638,3.345867,-9.168324
1.685998,-8.074883,0.772756,-15.494031,-1.052738,3.514365,-9.139144
1.719329,-2.742207,-0.841143,-9.82795,-1.076082,3.421436,-9.154557
1.752679,-0.540061,-2.026764,-9.38396,-1.079674,3.428021,-9.049208
1.785974,0.048784,-2.009256,-8.960171,-0.964299,3.42817,-9.11565
1.81921,0.258583,0.830069,-12.540678,-1.178438,3.412009,-9.081531
1.85264,3.262665,0.714844,-10.870213,-1.057078,3.484885,-9.155455
1.885974,3.639167,0.586002,-10.003781,-0.923896,3.60864,-9.142885
1.91923,3.703364,0.257685,-8.313115,-1.235153,3.590533,-9.080933
1.95258,3.74272,3.117212,-11.50006,-1.226923,3.731945,-8.81367
1.985888,3.929474,2.453845,-10.242012,-1.243533,3.697977,-8.864848
2.018886,2.796527,2.663495,-10.202058,-1.124267,3.761425,-9.030952
2.052527,1.115289,2.048612,-7.516565,-0.940356,3.832954,-8.985011
2.085886,1.756958,2.455491,-8.934133,-0.974625,3.820085,-8.849884
2.11922,2.660801,2.646585,-10.133072,-1.072641,3.770254,-8.699343
2.152432,1.171555,2.118495,-9.688633,-0.908033,3.785667,-8.963613
2.185946,-0.84668,1.469194,-8.375815,-0.996472,3.515412,-9.104726
2.219312,-1.179336,1.886249,-9.426757,-0.94724,3.585146,-9.029455
2.252552,-1.66403,2.00312,-8.075482,-0.723224,3.614176,-9.204238
2.285908,-0.798944,2.884517,-7.993777,-0.877207,3.594124,-9.159495
2.319215,0.111185,6.144489,-9.532405,-0.960109,3.61268,-9.185982
2.352553,1.857817,7.317241,-10.619112,-0.678331,3.71309,-9.176405
2.385884,2.355679,6.813393,-10.107184,-1.122322,3.708751,-9.207381
2.419222,-2.848902,5.818118,0.849673,-0.933323,3.874854,-9.363159
2.452554,3.360083,3.434306,2.055346,-0.981807,3.847021,-9.621293
2.485962,5.258453,2.153961,-6.113363,-2.040082,3.794945,-10.069474
2.518671,-3.533519,5.243489,-5.588715,-2.218906,3.419641,-10.777734
2.552552,0.300184,4.250608,-9.883767,-0.401492,2.758668,-10.806016
2.585963,1.469194,3.494911,-9.73996,0.530784,4.326627,-11.052179
2.61922,1.377314,3.057654,-9.391891,-0.931827,3.895804,-10.401083
2.652553,1.433131,3.029073,-9.579543,0.043845,3.494462,-7.626104
2.685886,1.265381,3.025631,-9.388898,-8.56212,6.514257,-17.247098
2.719245,1.294112,2.886612,-9.190771,-9.307941,-1.765188,-9.511006
2.752594,1.270469,2.689832,-9.204089,0.711552,-1.034931,-8.264331
2.785887,1.375368,2.882273,-9.326197,0.814058,0.216982,-8.488795
2.819257,1.466351,2.824062,-9.327245,-0.269806,1.618538,-9.978341
2.852557,1.458869,2.908161,-9.351936,2.050258,3.458099,-11.843042
2.885886,1.377164,2.932553,-9.386653,0.017658,5.126318,-12.226128
2.919243,1.409786,2.930458,-9.36301,-2.197656,9.200348,-14.544995
2.952553,1.413827,2.979541,-9.317817,0.065693,12.182283,-13.29832
2.985885,1.3619,2.913548,-9.336223,3.672537,23.707483,-2.392192
3.018598,1.463358,2.977446,-9.422567,7.394307,27.177553,14.578814
3.052555,1.602826,3.130082,-9.557096,8.031636,-3.075013,-35.368559
3.085885,1.608811,2.619799,-9.323354,-3.740625,3.84313,-13.521587
3.119205,1.719397,2.974004,-9.541384,1.356663,3.142951,-10.313093
3.152553,1.577686,2.955897,-10.085186,-1.041216,3.979156,-9.403862
3.185889,0.512976,2.704347,-8.892233,-1.080871,3.66715,-9.223093
3.219219,1.112146,2.68639,-10.046279,-1.157189,3.434605,-9.121785
3.252551,-1.556137,2.041878,-12.236304,-0.976869,3.63797,-9.138844
3.285907,0.171491,0.482,-15.870083,-1.096284,3.525438,-9.070158
3.319218,2.156505,-1.635747,-7.921948,-1.094339,3.493265,-9.089911
3.352557,2.577749,0.345825,-9.192117,-1.132049,3.484286,-9.073002
3.385901,1.021612,1.976334,-9.143184,-1.127709,3.473512,-8.995786
3.419221,0.039356,1.809333,-8.536083,-1.062914,3.557312,-9.158148
3.452573,0.449228,2.743703,-10.491617,-1.327183,3.380135,-8.921563
3.48589,0.193638,2.278613,-9.519386,-1.140429,3.517357,-9.067315
3.518372,0.718286,2.2424,-10.589633,-0.982107,3.50808,-9.200797
3.552667,1.536833,1.69725,-10.337035,-1.183825,2.866411,-8.854074
3.5859,0.751657,1.932639,-9.603486,-1.253709,3.23543,-8.971544
3.619182,0.803583,2.193915,-9.291031,-1.089101,3.389862,-9.024068
3.652398,1.337658,2.652721,-10.264309,-0.975822,3.411859,-9.285494
3.685232,1.082816,3.128136,-9.581039,-1.296207,3.35724,-9.030054
3.719221,1.603574,3.207597,-8.554638,-1.330326,3.479947,-8.98995
3.752557,1.441361,4.11563,-9.056241,-1.281093,3.409764,-8.953138
3.785886,2.632219,4.455768,-9.431396,-0.899803,3.503441,-9.179547
3.81922,1.23201,3.706506,-7.339388,-1.176642,3.468724,-9.01479
3.852557,1.496878,4.615288,-8.598035,-1.16497,3.402881,-9.053548
3.88592,-0.358694,3.853755,-7.534822,-1.356962,3.697378,-8.983515
3.91925,0.008979,4.26647,-8.669714,-0.889029,3.376693,-9.292827
3.952553,-0.991235,4.208409,-8.598035,-1.101522,3.412308,-9.164134
3.985888,-0.919706,4.262729,-8.700839,-1.232609,2.9755,-8.80559
4.018422,-1.059472,4.175487,-8.831029,-0.899653,3.055859,-9.379171
4.052551,-0.285668,4.097673,-9.182241,-1.01428,3.203257,-9.233269
4.085921,0.894416,5.567466,-10.620908,-1.099127,3.394501,-9.119241
4.119224,0.589892,3.877847,-7.263519,-1.120975,3.387318,-9.167277
4.152575,5.664285,6.587283,-3.920795,-0.881098,3.466629,-9.390544
4.185948,-1.506306,-1.760998,-2.588224,-1.232459,3.309354,-9.645236
4.219304,4.04036,28.02992,-33.791472,-1.636196,3.505985,-10.457348
4.252553,-0.258733,2.230578,-10.856895,-1.087755,3.652186,-10.983942
4.28587,0.714695,2.898135,-9.583134,-1.808136,2.840073,-11.32004
4.31925,1.279597,3.012612,-9.619348,0.635683,2.516097,-11.086896
4.352552,1.42071,2.830347,-9.337421,-1.828936,3.443733,-8.403948
4.385866,1.376117,2.593612,-9.06088,-3.437298,5.788638,-6.668838
4.419259,1.371029,2.691328,-9.250628,-9.355677,1.471439,-11.183865
4.452589,1.419064,2.764055,-9.36301,-2.849501,0.906238,-8.885798
4.485866,1.499871,2.878831,-9.406556,-1.676151,2.283701,-8.88939
4.519224,1.525011,2.959638,-9.419575,-0.199773,2.039184,-8.191305
4.552575,1.479669,2.815532,-9.350888,-1.479819,3.254584,-9.205884
4.585864,1.5298,2.890354,-9.372138,-0.597075,3.132775,-9.607526
4.619219,1.552396,2.679656,-9.242697,-0.616828,3.72147,-10.698274
4.652591,1.566013,2.937042,-9.397278,-0.310659,6.656567,-12.404802
4.686298,1.560926,2.83319,-9.334877,-0.53243,6.972912,-10.116761
4.719223,1.554042,2.95485,-9.355677,-3.311299,8.223927,-7.423487
4.752553,1.592051,2.868356,-9.335775,5.049701,14.989734,-3.252489
4.786025,1.566612,2.87913,-9.346549,8.117232,23.305692,6.82297
4.819205,1.603723,2.81224,-9.357772,0.231797,-0.298238,-25.152136
4.852553,1.689319,2.869703,-9.389796,-1.749176,3.877997,-10.913909
4.885949,1.681538,2.846059,-9.413738,0.325024,2.975051,-9.040978
4.919223,1.513189,2.878532,-9.342209,-0.505195,2.646286,-9.531807
4.952591,1.650412,2.679806,-9.414337,-1.003655,3.874555,-9.283549
4.985882,0.811214,2.603488,-9.25377,-0.836654,3.442237,-9.268884
5.019213,1.530099,3.199665,-9.684742,-0.870174,3.615972,-9.188526
5.052579,1.521569,3.391059,-9.382762,-0.685963,3.309803,-9.245241
5.08589,0.767968,3.09297,-9.246288,-0.860447,3.323121,-9.14498
5.11922,1.213455,3.065735,-9.218903,-0.753153,3.358586,-9.20768
5.152592,1.891188,4.716596,-9.592263,-0.887532,3.371456,-9.147374
5.185891,2.123583,3.758732,-10.306508,-0.851019,3.425177,-9.129118
5.21922,-0.62012,1.117234,-11.721382,-0.750459,3.428918,-9.189424
5.252555,0.912972,0.442644,-13.331989,-0.912672,3.369061,-9.12403
5.285891,0.758839,-0.7542,-10.049422,-0.82124,3.44493,-9.113555
5.319296,1.291269,-0.110137,-10.311297,-0.873316,3.37819,-9.029755
5.352587,2.568771,0.697486,-10.40647,-0.815105,3.386869,-9.180894
5.385858,3.012163,0.745072,-9.395781,-0.92195,3.304416,-9.131961
5.419233,4.591943,1.03927,-10.189039,-0.991833,3.055859,-9.185383
5.452559,4.155285,2.20439,-9.768991,-0.925242,3.286608,-9.135852
5.485884,2.274423,2.978194,-8.989052,-0.899504,3.397793,-9.164284
5.519222,1.149707,4.205865,-9.119241,-0.827825,3.343023,-9.204687
5.552558,0.937962,5.643335,-9.899629,-0.887532,3.312945,-9.159196
5.585909,1.832528,7.848024,-11.891975,-0.942002,3.226452,-9.115799
5.619248,2.141989,6.234424,-7.148743,-0.893817,3.2899,-9.117595
5.652377,1.270918,7.123304,-6.092264,-0.819445,3.355743,-9.196906
5.685974,0.694343,8.579778,-7.406278,-0.870772,3.203706,-9.131213
5.719223,-1.751122,8.005,-6.76416,-0.866882,3.292594,-9.239404
5.752554,-3.241416,7.844732,-6.532513,-0.887532,3.246504,-9.25377
5.785971,1.984864,3.88503,-4.502158,-0.81316,3.344071,-9.410446
5.819224,2.37229,-1.806041,-1.467548,-0.818547,3.339282,-10.02084
5.852552,15.509444,9.324701,-29.109594,-1.067852,3.40333,-10.77085
5.885868,0.723374,-3.592329,-6.122492,-1.254008,3.760827,-11.41626
5.919254,2.205587,3.036555,-9.168474,-0.861943,2.433045,-12.278653
5.952554,1.329129,2.860724,-9.130913,1.681089,3.2899,-11.266318
5.985893,1.261789,2.67816,-8.78434,-1.542968,2.928064,-9.984477
6.019259,1.483111,2.911902,-9.322007,-4.959467,5.98886,-10.831156
6.05254,1.341549,2.889755,-9.42556,-9.176854,1.376865,-13.481333
6.085886,1.578434,2.927914,-9.379919,-5.690023,0.614584,-9.841268
6.119218,1.608362,2.857731,-9.465365,-0.884091,-0.290756,-7.914466
6.152564,1.532643,2.789195,-9.229528,1.019218,0.770212,-7.896808
6.185912,1.516182,2.856983,-9.106821,-1.583372,2.96323,-9.757768
6.219224,1.565415,2.821817,-9.334278,-0.513874,4.932381,-11.143312
6.252552,1.578434,2.792487,-9.300159,-1.514985,5.296462,-10.659366
6.284997,1.589807,2.875838,-9.365853,-0.937064,7.761231,-12.292719
6.319306,1.661186,2.873893,-9.382613,-1.591902,9.072702,-10.045232
6.352639,1.642331,2.825408,-9.268136,2.664692,15.782093,-5.542924
6.385973,1.661037,2.832142,-9.301656,-0.049532,19.68523,1.463957
6.419196,1.624075,2.812689,-9.358221,0.580914,22.979769,7.312452
6.452551,1.686476,2.727542,-9.306445,6.559898,9.680402,-7.352557
6.485209,1.753666,2.60693,-9.339216,4.29595,2.938688,-10.119754
6.519273,1.873679,2.780665,-9.584631,-0.551434,4.975628,-9.79458
6.552558,1.379558,2.79563,-9.644039,-0.273697,3.308157,-9.292677
6.585883,1.916777,3.220616,-9.478684,-0.290906,3.594424,-9.189573
6.619219,1.021014,2.977595,-9.383211,-0.537667,3.727157,-9.150965
6.652555,1.372525,3.513018,-9.782159,-0.294198,3.36966,-9.219352
6.685947,1.464556,4.381994,-9.868803,-0.549938,3.376095,-9.037686
6.71923,-0.336547,1.989653,-11.621571,-0.076019,3.423531,-9.317069
6.752554,-0.035615,2.620098,-16.598994,0.038458,3.436999,-9.317967
6.785951,2.639851,-1.603125,-10.666998,-0.274296,3.420838,-9.072253
6.819224,1.291119,-1.410235,-7.854609,-0.380243,3.368912,-9.074199
6.852654,3.593975,-0.281778,-8.684528,0.011971,3.508828,-9.247635
6.885133,4.554084,1.791376,-11.37017,-0.201868,3.418892,-9.141837
6.91928,3.127238,1.527555,-8.602374,-0.089337,3.467826,-9.197953
6.952019,1.879066,3.085488,-9.644338,-0.365428,3.375346,-9.099339
6.98598,1.653106,3.921543,-8.611054,-0.118368,3.401833,-9.179098
7.019221,0.838898,5.914937,-10.993968,-0.119714,3.304116,-9.153509
7.052552,0.460751,5.995445,-10.664903,-0.142909,3.364722,-9.197056
7.085922,-1.186369,6.28665,-8.869786,-0.172538,3.466629,-9.122683
7.119246,0.793557,5.706035,-8.757704,-0.376801,3.368014,-9.078688
7.152551,1.408888,6.879984,-10.484434,-0.16775,3.427572,-9.172364
7.18591,0.479606,4.94974,-7.207553,-0.090235,3.299627,-9.232072
7.219222,0.128244,4.911581,-7.489031,-0.190944,3.40722,-9.239255
7.252533,0.991684,4.002051,-7.628797,-0.177327,3.394052,-9.201694
7.285875,1.265231,3.37385,-7.217429,-0.148147,3.473213,-9.264096
7.319224,2.337124,4.851125,-10.778482,-0.007632,3.539654,-9.284597
7.352529,2.913099,2.169075,-7.163258,-0.173586,3.665354,-9.310784
7.385935,-0.499807,13.22709,5.396274,0.102954,3.787762,-9.571013
7.419253,11.147502,10.432957,-41.732275,-0.299735,3.860489,-9.738763
7.452337,1.677797,-5.677004,-7.456558,-0.346723,4.04006,-10.036403
7.485631,2.061332,4.341142,-10.391655,-1.010988,4.034224,-10.26371
7.51885,1.365941,3.521248,-9.138096,-1.259245,3.495959,-11.246416
7.55259,1.415922,3.099554,-9.398625,0.00015,3.136815,-11.650003
7.585063,1.414126,3.122749,-9.399223,-0.697635,3.358287,-10.031764
7.619216,1.50047,3.110329,-9.372886,-5.137093,10.483985,-18.250454
7.652639,1.484458,3.120055,-9.29148,-6.455746,-3.228846,-10.802724
7.685981,1.451686,2.984329,-9.226236,-1.907798,-1.007995,-10.142949
7.719331,1.513938,3.012163,-9.286093,-1.960921,-1.248022,-9.127172
7.752684,1.475629,2.997348,-9.207381,-1.566911,0.584655,-9.470304
7.785973,1.531745,3.05511,-9.288338,0.358395,2.273376,-11.787225
7.819307,1.511992,3.102248,-9.27053,-0.530634,3.606245,-12.391633
7.852645,1.589956,3.064688,-9.253321,-2.998246,6.305804,-12.601582
7.885973,1.58831,3.080999,-9.271727,-3.575718,8.362198,-12.863757
7.919298,1.507054,3.061844,-9.271428,-2.423168,12.125867,-8.91423
7.952649,1.570203,3.041792,-9.302404,4.28308,18.299088,0.370965
7.985975,1.60118,3.098507,-9.280107,12.578836,34.853488,15.72074
8.019292,1.65535,3.030868,-9.395033,0.524947,-2.690281,-18.930581
8.052595,1.59669,2.991961,-9.594806,1.119629,10.950123,-21.674284
8.085816,1.823699,3.179913,-9.972805,0.693445,4.586856,-9.7443
8.119015,1.871285,3.42009,-8.104961,-1.009791,3.779831,-9.310635
8.152272,1.914083,4.467141,-9.543479,-0.388922,3.152678,-9.324851
8.1859,1.897622,5.382657,-10.16345,-0.591838,3.412158,-9.395332
8.219222,2.54812,5.021718,-9.715718,-0.898905,3.362327,-8.980522
8.252573,-2.279661,3.176321,-14.154577,-0.545449,3.222561,-9.172514
8.285828,0.73774,1.918722,-13.071461,-0.920603,3.497156,-8.990249
8.319218,2.963978,-0.571935,-7.520755,-0.815554,3.36951,-8.992344
8.352553,2.975351,0.348369,-7.071377,-1.049446,3.4786,-9.013144
8.385892,0.903394,2.531061,-8.364891,-0.43576,3.584248,-9.30824
8.419218,1.963315,4.28757,-11.250007,-0.667108,3.392406,-9.206034
8.452551,1.501966,3.117661,-8.481313,-0.891872,3.43251,-8.944907
8.485929,0.859998,3.408866,-8.192951,-0.949484,3.779532,-8.980672
8.519218,1.213604,4.021953,-8.419211,-0.565201,3.530376,-9.3042
8.552617,3.443135,5.099532,-11.383489,-0.720381,3.451365,-9.143932
8.585884,2.993308,4.607357,-9.81538,-0.934221,3.425477,-8.951791
8.619218,2.972807,4.509341,-8.464853,-0.773654,3.277779,-9.161889
8.652533,0.283873,4.536127,-8.058123,-0.719334,3.305912,-9.109514
8.685888,0.49442,4.648359,-9.431845,-0.960558,3.19368,-8.934731
8.719204,0.22611,4.507395,-9.420023,-0.633439,3.318183,-9.353582
8.752552,-1.226923,4.143314,-9.159495,-0.707063,3.262366,-9.167426
8.785908,-1.526059,4.1493,-9.053997,-0.709906,3.34452,-9.121336
8.819314,0.041451,5.494739,-11.105901,-0.678182,3.363375,-9.18688
8.852574,2.508315,5.162083,-5.778013,-0.629548,3.464234,-9.331884
8.885973,4.605711,8.141175,-4.03602,-0.5869,3.486531,-9.391442
8.919226,4.521761,20.796479,-4.389626,-0.515969,3.507182,-9.533303
8.952638,-2.414489,4.20362,-12.77861,-0.666809,3.762473,-10.127086
8.986035,1.322694,4.286672,-8.469641,-1.252661,3.552673,-10.557759
9.019309,1.165419,3.677625,-9.157699,-2.23806,2.972059,-11.233247
9.052551,1.63051,3.23558,-9.690279,1.809931,2.885864,-12.782201
9.085951,1.541921,3.033412,-9.4091,-2.440976,2.344456,-11.925645
9.119315,1.574543,3.171682,-9.416881,-4.737546,3.537709,-12.051794
9.152641,1.410684,3.027576,-9.275468,-9.782459,-2.884966,-12.1121
9.185891,1.52142,3.027277,-9.262001,-1.973491,-3.308905,-9.226386
9.219308,1.567211,3.007075,-9.357473,-1.18607,-1.844649,-9.038434
9.252644,1.544465,3.022488,-9.227433,-2.268587,0.889627,-10.642906
9.285973,1.615246,3.113022,-9.29567,-2.537795,2.719611,-11.859204
9.319316,1.621531,3.071721,-9.322756,-0.386228,3.221513,-12.369636
9.352645,1.522467,3.110628,-9.215911,0.322032,2.961883,-12.782949
9.385982,1.552845,3.108084,-9.222345,-4.885992,6.517848,-16.225485
9.41933,1.715956,3.152079,-9.220101,0.163111,14.676382,-7.61084
9.452605,1.60956,3.189789,-9.361064,5.597095,30.274863,6.448713
9.485964,1.584868,3.190388,-9.395931,8.936078,28.187643,6.181301
9.519307,1.52142,3.328059,-9.437831,-0.296143,-5.20129,-10.949524
9.552559,2.065522,2.935246,-9.473596,0.101159,-0.469729,-6.59237
9.585885,0.718585,1.157488,-9.338917,-0.269806,5.774422,-9.279658
9.619309,0.767369,4.261233,-8.87667,-0.363034,3.925883,-9.072104
9.651775,1.137436,6.045425,-9.221298,-0.31021,3.54579,-9.190322
9.685887,1.598187,5.321303,-8.97738,-0.432169,3.367266,-9.106671
9.719261,1.817114,9.307193,-8.590104,-0.448779,3.493115,-9.047113
9.752548,2.120889,0.244966,-12.546364,-0.527641,3.41575,-9.133757
9.785723,2.988819,3.593226,-16.882867,-0.497862,3.254884,-9.250179
9.819204,2.352237,-0.17194,-8.596389,-0.455214,3.468574,-9.067016
9.852558,2.632968,0.444589,-8.713858,-0.588995,3.387916,-9.06507
9.885908,1.984565,1.787485,-10.085186,-0.49457,3.337038,-9.1782
9.919176,0.050729,2.572512,-8.957627,-0.48185,3.383427,-9.142137
9.952353,-0.851618,2.386655,-8.47428,-0.410022,3.350506,-9.244792
9.986034,1.77267,4.154836,-12.712168,-0.433665,3.384774,-9.160393
10.019207,2.710932,3.983346,-11.160521,-0.50729,3.515861,-9.105474
10.052553,2.947068,4.007737,-8.951043,-0.38548,3.532771,-9.084973
10.085856,3.152977,4.744879,-9.747742,-0.500556,3.464085,-9.083028
10.119203,1.187866,4.692055,-9.426907,-0.361388,3.492517,-9.162189
10.152666,1.439416,4.254349,-8.4867,-0.364381,3.390161,-9.160842
10.185891,2.464021,4.644169,-8.709668,-0.288212,3.337038,-9.318416
10.219444,1.210611,5.071549,-8.980223,-0.162213,3.42832,-9.20768
10.251624,-2.191072,6.064131,-9.07375,-0.177776,3.377292,-9.35014
10.285884,-0.203365,8.538178,-11.471479,-0.022596,3.370408,-9.372437
10.31919,-1.045256,6.832996,-5.266833,-0.126748,3.492517,-9.445014
10.351631,0.907285,10.497004,-2.02437,-0.126748,3.616271,-9.733525
10.385884,-5.182435,15.748124,14.518957,-0.395357,3.627046,-10.138609
10.419614,15.188011,22.791369,-29.950886,-1.354718,3.256829,-10.596067
10.451668,-1.334516,1.400209,-9.139742,-0.844585,3.020393,-11.386182
10.485943,1.066505,4.188356,-10.177965,1.746034,4.632197,-10.938151
10.519202,1.526059,3.309503,-9.407304,-0.167899,4.169651,-9.946318
10.552551,1.42505,2.838577,-9.001622,1.08117,2.143037,-8.330473
10.584959,1.470691,2.804758,-9.333979,0.378746,11.686965,-11.818052
10.619224,1.416819,2.713775,-9.324102,-6.146135,7.118964,-14.131232
10.652552,1.53818,2.809995,-9.346399,-7.777243,-1.603873,-7.263519
10.68591,1.544166,2.734725,-9.223842,0.845034,-0.31021,-7.713944
10.719218,1.564218,2.84576,-9.354181,0.295694,0.495917,-8.567059
10.752585,1.596241,2.881076,-9.379919,1.066356,2.982983,-11.251952
10.785851,1.661785,2.920881,-9.364805,2.534652,3.860339,-11.639079
10.819181,1.64293,2.871199,-9.386055,2.544529,4.533283,-11.398004
10.851611,1.616293,2.878681,-9.324701,2.628778,5.076038,-12.35108
10.885889,1.606267,2.801615,-9.306594,-0.660674,7.142458,-13.23128
10.919218,1.68887,2.868057,-9.342209,-3.340031,10.007372,-8.728972
10.952162,1.645623,2.847256,-9.338318,2.061481,16.069557,-10.015602
10.985884,1.616293,2.679207,-9.237908,0.699132,17.128431,-0.791013
11.019219,1.720894,2.831394,-9.327095,5.558936,16.378869,8.048247
11.052581,1.750822,2.794582,-9.332183,3.857646,-0.453568,-28.172978
11.085883,1.86485,2.65302,-9.225488,-1.795715,4.502457,-18.41132
11.119253,1.726281,2.626234,-9.568619,0.971332,4.410726,-10.612079
11.152584,1.998332,3.369959,-10.06708,-0.465838,3.845824,-9.335026
11.185885,1.498524,2.990016,-9.349542,-0.647206,3.384026,-9.225637
11.219264,0.762431,3.617768,-8.786735,-0.688358,3.252639,-9.14902
11.252556,2.694022,5.974195,-9.036489,-0.791761,3.437298,-9.151115
11.285882,2.507118,5.106266,-8.54551,-0.781735,3.34452,-9.175357
11.319203,1.348433,4.831821,-8.413076,-0.869126,3.387617,-9.164882
11.35258,1.942365,0.05866,-11.534628,-0.820492,3.426225,-9.100985
11.38592,3.865128,0.983753,-13.412198,-0.871072,3.431612,-9.142137
11.419223,4.247765,-0.201868,-12.049849,-0.686861,3.453759,-9.203939
11.452552,2.640001,0.274445,-9.835133,-0.729809,3.419641,-9.180445
11.485902,3.211038,1.742293,-10.386867,-0.853264,3.338983,-9.062377
11.519123,4.500661,3.632583,-12.331327,-0.720531,3.353798,-9.202892
11.55259,3.471267,1.963764,-7.465387,-0.669054,3.448971,-9.162787
11.585871,3.149086,2.596455,-7.5019,-0.716341,3.429367,-9.1366
11.619218,2.831993,3.813052,-9.933897,-0.569391,3.454807,-9.191818
11.652573,2.584184,4.70657,-11.015517,-0.576425,3.472764,-9.149469
11.68589,1.22393,4.602568,-10.420686,-0.593035,3.408567,-9.148571
11.719217,0.796849,4.918913,-10.246801,-0.699431,3.229893,-9.178649
11.75255,0.328317,4.521312,-7.90863,-0.420347,3.407071,-9.171766
11.78593,-0.826927,5.92182,-6.266747,-0.506092,3.328957,-9.210374
11.819218,1.274808,9.305846,-12.421262,-0.586451,3.407819,-9.191818
11.852622,0.248108,10.933812,-4.102461,-0.407328,3.427572,-9.370342
11.885888,0.953525,11.837356,0.962204,-0.438903,3.437897,-9.564579
11.919226,-1.718949,15.357556,4.923403,-0.24302,3.536212,-10.195922
11.952529,-0.165505,6.961988,-3.900892,-0.996772,3.830261,-10.341225
11.985908,-2.107721,4.642223,-10.212233,-0.717987,3.791952,-11.210052
12.019022,2.126726,3.677026,-10.561201,-0.08365,1.77701,-12.907153
12.05255,1.317756,3.253836,-9.599445,0.170294,3.400636,-10.838489
12.085877,1.553892,3.140108,-9.423914,-1.192355,3.592029,-9.081531
12.119226,1.496579,2.953503,-9.231922,-0.580914,6.89854,-12.693164
12.15255,1.361452,2.960386,-9.401019,-8.419361,0.864338,-13.230831
12.185891,1.455128,2.994954,-9.418228,-3.326263,-1.620633,-7.785923
12.219197,1.492239,2.901726,-9.28729,0.725768,-1.585617,-7.922547
12.252548,1.488648,2.957094,-9.453095,0.790414,0.982107,-9.357772
12.285891,1.478173,2.969365,-9.222046,-0.345526,3.455106,-11.971286
12.319199,1.575441,3.045683,-9.302404,2.371541,4.767774,-12.271619
12.352551,1.433579,2.976697,-8.914829,1.034482,4.194492,-11.030182
12.385929,1.552396,3.015006,-9.402964,-1.369083,5.42725,-11.662722
12.419218,1.518726,2.9966,-9.359119,-5.59066,10.063638,-12.759605
12.45256,1.454978,3.037453,-9.354031,-3.741373,19.803897,-6.515903
12.485862,1.537731,3.149385,-9.451299,4.971139,26.111796,6.931012
12.519241,1.481316,3.146393,-9.369444,16.313475,25.151238,1.263735
12.552594,1.728077,3.206549,-9.584631,2.30091,12.577789,-5.760954
12.585745,1.844499,3.219568,-9.89514,-0.186006,6.643249,-10.557759
12.61926,1.650262,3.336738,-9.855784,-0.167002,3.704112,-9.285046
12.652558,1.2781,4.410277,-9.303003,0.105947,3.385372,-9.47584
12.685949,1.872482,6.245049,-9.728737,0.028582,3.57931,-9.24554
12.719219,0.640472,5.821859,-8.476674,-0.148296,3.453011,-9.1785
12.75255,1.046752,3.223309,-14.126294,-0.114776,3.475158,-9.121486
12.785863,2.233421,3.067082,-18.116374,-0.125102,3.287506,-9.32081
12.819213,1.820257,-1.600731,-9.777221,-0.019603,3.329256,-9.41718
12.852552,2.664991,-0.077216,-9.703896,-0.181816,3.079951,-9.180146
12.885873,2.616208,0.425734,-9.447259,-0.257536,3.311299,-9.200497
12.919252,3.974367,1.86919,-11.055471,-0.236436,3.234083,-9.220998
12.952584,3.026379,1.254756,-9.225937,-0.222519,3.336738,-9.18688
12.986056,3.858843,2.074201,-9.76914,-0.222968,3.254884,-9.156802
13.019205,4.802042,5.16328,-12.020369,-0.145752,3.364123,-9.135103
13.052592,2.619949,5.650667,-9.661697,-0.215635,3.364572,-9.142885
13.085695,1.511094,4.521611,-7.713046,-0.285369,3.293342,-9.135253
13.119223,0.834708,4.576231,-8.225424,-0.215785,3.133972,-9.192267
13.152549,2.258561,6.377782,-9.964724,0.007183,3.283017,-9.339665
13.185902,2.652122,10.269247,-13.096302,-0.053572,3.15986,-9.246288
13.219111,0.369618,9.032897,-5.837721,0.012271,3.13891,-9.341162
13.252551,-2.002971,9.012546,-5.487257,0.090085,3.214031,-9.410746
13.285864,-1.100923,8.022059,-6.294132,-0.016311,3.168839,-9.590467
13.319217,0.628051,8.245326,-5.471545,0.479007,3.228846,-9.894691
13.35255,2.83334,15.721039,8.526206,0.402689,3.331351,-10.461987
13.385773,13.825512,25.229202,-40.585412,0.099513,3.522894,-10.758879
13.419257,-1.67241,0.815704,-14.61413,-0.718286,3.549082,-11.53807
13.452633,1.853777,3.480695,-10.404973,1.899119,0.731455,-13.381072
13.485885,1.453332,3.369211,-9.428852,1.474282,3.280473,-11.272603
13.51922,1.673756,2.972657,-9.764801,-1.841057,2.634913,-9.268585
13.552536,1.419214,2.907562,-9.34191,-4.94959,18.368372,-20.321811
13.585884,1.351725,2.810145,-9.19511,-7.82468,1.458121,-12.560879
13.619219,1.591602,2.980139,-9.448007,-5.434882,-2.19616,-7.920452
13.652558,1.444803,2.857582,-9.322756,0.18436,0.844884,-9.335026
13.685887,1.485655,2.92522,-9.15336,0.983753,1.407392,-9.475691
13.71903,1.560177,2.90876,-9.340413,1.640536,2.973854,-10.890714
13.752581,1.601928,2.928512,-9.405508,2.675466,3.743468,-11.545402
13.785884,1.510795,2.90457,-9.438729,1.01832,4.516673,-13.016392
13.819221,1.5506,2.956795,-9.32111,-3.29843,8.304286,-16.957688
13.852552,1.535037,2.855038,-9.291181,-4.277993,9.271278,-11.387679
13.885894,1.549104,2.910106,-9.255716,2.589571,26.09758,0.659776
13.919211,1.508251,2.902774,-9.294772,2.538842,33.481562,16.982978
13.952551,1.580379,2.892149,-9.472698,0.919706,-1.972444,-33.770073
13.98596,1.970199,3.219119,-10.363522,1.719547,4.821496,-8.681087
14.01922,2.288939,3.039248,-10.137711,-0.575976,4.305078,-9.793682
14.05256,-0.560413,-0.2303,-8.480715,-0.646906,3.083991,-9.426009
14.085908,2.038885,4.880904,-9.454441,-0.599919,3.297981,-9.475092
14.119226,2.61531,4.825386,-9.574605,-0.563406,3.391208,-9.294772
14.15255,1.003805,3.532022,-11.547946,-1.050045,3.499101,-9.033346
14.185885,4.233998,1.792723,-13.479837,-1.22797,3.282268,-8.931888
14.218915,4.881353,-1.759801,-9.070308,-0.982705,3.486381,-9.081531
14.252566,3.666851,-0.23883,-11.122811,-1.263884,3.419641,-8.955681
14.285193,1.645324,1.280345,-9.638652,-1.007546,3.655328,-9.049956
14.31922,-1.055432,1.447047,-8.455575,-1.100624,3.45346,-9.003567
14.352532,0.454615,1.788233,-10.694383,-0.979413,3.362926,-9.100985
14.385897,2.99226,3.256829,-13.476844,-0.919556,3.465731,-9.096795
14.419241,3.287356,2.559493,-10.221511,-0.940955,3.389712,-9.222944
14.452557,1.751122,3.376095,-8.913632,-0.828723,3.387018,-9.119391
14.485885,0.169845,2.76615,-8.261338,-1.072641,3.220466,-9.084075
14.519296,0.500107,4.267817,-10.625098,-1.008593,3.228098,-9.017334
14.552558,0.348069,4.500063,-9.205286,-0.893069,3.242314,-9.268286
14.585884,0.360041,5.789386,-10.259072,-0.924045,3.179314,-9.080783
14.619203,1.333768,6.03076,-11.063253,-1.173201,3.51616,-9.12792
14.652556,1.691863,4.922205,-8.833872,-0.942302,3.257727,-9.276815
14.685884,1.001411,5.003462,-7.076016,-0.74582,3.155371,-9.378572
14.719227,0.842191,6.135361,-6.443476,-1.042712,3.184552,-9.264993
14.75255,0.182265,7.176876,-7.256785,-0.581064,3.475607,-9.603935
14.78498,0.438753,7.597372,-1.043909,-0.652144,3.690943,-9.856831
14.819226,2.315575,15.692158,8.643077,-0.757642,3.736884,-10.385819
14.852589,16.663341,15.299196,-32.792157,-2.029907,3.455854,-10.801527
14.885913,-2.681751,0.485891,-10.427869,-2.526272,1.854525,-12.562376
14.919216,2.415088,2.871499,-10.54878,4.760142,0.931078,-11.64686
14.952569,1.617341,3.234981,-9.452197,-1.962118,3.237974,-10.873954
14.985928,1.40814,2.944375,-9.173262,-2.368549,2.544229,-8.182027
15.019219,1.413078,2.861173,-9.262749,-7.72397,20.308942,-18.392016
15.052612,1.476228,2.930757,-9.437382,-11.312558,0.791761,-11.934923
15.085896,1.6136,2.935396,-9.354181,0.79206,-1.506007,-7.673391
15.119217,1.558831,2.894843,-9.286991,1.695604,-0.472123,-7.571634
15.152564,1.579481,2.931206,-9.266191,0.466736,1.649514,-10.042538
15.185374,1.639937,2.922676,-9.327843,1.867993,2.893496,-10.80856
15.219307,1.700393,2.914446,-9.866708,2.668283,4.621872,-12.114195
15.252568,1.598336,3.014108,-9.07794,0.889478,5.524518,-13.400227
15.285888,1.689619,2.980738,-9.30854,2.251378,8.012183,-14.513271
15.319216,1.652058,2.935845,-9.251675,-2.557248,9.347746,-12.097884
15.352534,1.639189,2.949163,-9.288936,1.908845,19.213107,1.498973
15.385868,1.654153,2.943626,-9.31662,3.659668,26.719945,3.747209
15.41927,1.593248,2.984928,-9.392639,7.490976,23.00476,4.121616
15.452535,1.753217,3.10135,-9.870748,-0.993928,4.52221,-6.928618
15.485918,2.434242,3.141903,-10.48608,-0.371264,2.716319,-9.483322
15.519197,-0.325024,-0.637479,-8.676298,-1.301445,2.653169,-9.198103
15.552535,1.430437,4.439906,-9.063424,-0.780388,3.47875,-9.415983
15.585906,2.736371,6.01819,-10.079949,-1.14821,3.505536,-9.178051
15.619222,1.500021,4.994333,-8.662681,-1.039121,3.289002,-9.124928
15.653005,0.884091,9.332033,-9.829297,-0.709906,3.472165,-9.250179
15.685884,2.828102,0.388323,-14.950976,-0.70841,3.185,-9.234616
15.719217,4.825536,-0.673992,-11.179376,-0.799542,3.367864,-9.198552
15.752564,3.807814,-0.692548,-9.960235,-0.850571,3.292594,-9.210224
15.785912,2.917289,1.25311,-10.709347,-0.764526,3.300674,-9.18254
15.819218,0.840844,1.991897,-8.085358,-0.872119,3.282867,-9.138844
15.852554,1.067403,1.453632,-8.939969,-0.829321,3.308905,-9.167277
15.885745,0.699431,2.163837,-10.417394,-0.90115,3.244109,-9.193763
15.919241,0.475416,3.753494,-11.333059,-0.844734,3.222262,-9.205136
15.952599,1.114541,4.444695,-11.117872,-0.832613,3.240668,-9.193165
15.985884,2.357325,4.560369,-10.105538,-0.861195,3.237076,-9.143932
16.019238,1.998781,3.981849,-9.269183,-0.692548,3.266556,-9.204987
16.052538,2.137949,4.128649,-9.215162,-0.689704,3.237525,-9.270381
16.085883,1.614198,4.997925,-9.591814,-0.596477,3.256231,-9.304649
16.119242,2.784855,6.70146,-11.199877,-0.61174,3.252489,-9.352684
16.15256,2.731433,9.860123,-11.731857,-0.682821,3.31504,-9.431247
16.185892,1.60956,9.716466,-7.586,-0.424537,3.366817,-9.427206
16.219211,-2.014194,7.537515,-0.078862,-0.395207,3.430714,-9.496042
16.252559,-1.460066,12.751674,-0.428428,-0.361388,3.756188,-9.695965
16.285884,-4.596732,14.785771,9.427805,-0.640621,3.938153,-10.237673
16.319258,17.552669,19.143224,-20.761612,-1.634101,4.156482,-10.667746
16.352551,-2.699259,3.828764,-8.945356,-0.33939,2.267839,-11.772111
16.385394,2.262751,3.871113,-10.129032,2.441425,4.482405,-12.58168
16.419216,1.350827,3.272542,-9.477037,-0.769913,3.28571,-11.146005
16.452592,1.339753,2.991961,-9.262599,-2.663345,4.164114,-8.882207
16.485951,1.353072,2.774979,-9.313029,-9.186132,6.07266,-16.385304
16.51925,1.327034,2.832442,-9.380368,-5.429645,-1.958377,-8.063959
16.551721,1.448693,2.781563,-9.341162,0.988392,0.823036,-9.273673
16.585871,1.415622,2.729936,-9.213067,-0.370067,1.053337,-8.676148
16.619217,1.438218,2.902924,-9.376028,1.646222,2.525823,-9.890202
16.652559,1.450639,2.726794,-9.434389,3.559257,3.400786,-11.4836
16.685883,1.577985,2.856833,-9.453843,4.242228,5.064516,-12.025606
16.719219,1.548655,2.743703,-9.545724,2.367202,4.188506,-11.465493
16.752554,1.504959,2.936743,-9.248383,0.723524,5.060476,-12.758408
16.785883,1.589807,2.882123,-9.335026,-1.567809,10.034457,-14.833806
16.819215,1.620783,2.884069,-9.330687,0.061503,19.678945,-2.606331
16.852537,1.662982,2.947966,-9.39234,2.74535,21.99871,2.90427
16.885883,1.551797,2.822865,-9.330537,9.114902,25.526842,15.679738
16.919227,1.602676,2.802812,-9.786948,-4.566803,21.399989,-11.499013
16.952556,1.969002,3.277181,-9.968914,-5.512248,5.409293,-14.553076
16.985893,0.635384,0.785326,-9.128669,1.667471,4.78199,-9.646433
17.01924,2.303155,5.368141,-9.905465,-1.11469,3.903885,-9.405807
17.051858,3.155371,6.308198,-11.070884,-0.741481,2.988669,-9.228331
17.085885,1.265381,6.456644,-9.256314,-0.946492,3.157915,-9.218155
17.119217,3.347213,-0.76273,-14.683864,-0.735944,3.363375,-9.317967
17.152543,3.16016,-0.990337,-10.718924,-1.133845,3.219568,-9.086619
17.185921,2.733079,0.044444,-10.102096,-0.777245,3.526037,-9.298663
17.218714,1.656996,1.196994,-10.518103,-1.213604,3.129034,-9.047113
17.252552,2.464021,2.595108,-10.138759,-1.157339,3.27748,-9.046215
17.285976,0.087391,1.038522,-7.053869,-1.185621,3.420688,-9.039033
17.319256,1.002458,1.726131,-9.303452,-1.163923,3.434755,-9.100386
17.352553,0.868677,3.419192,-12.006751,-1.040617,3.504787,-9.106821
17.385941,2.815083,5.046259,-12.358562,-1.021014,3.419341,-9.160543
17.419224,2.953652,4.427037,-8.424,-1.007247,3.45346,-9.06522
17.452553,3.020094,3.056607,-7.335647,-1.183975,3.265957,-9.050555
17.485868,3.443135,4.22023,-11.00579,-1.072042,3.389862,-9.088415
17.519263,3.279126,5.217152,-12.472141,-1.19011,3.221364,-8.874874
17.552552,0.325024,4.584162,-8.602973,-1.021762,3.41979,-9.19092
17.585216,-1.722241,4.603915,-6.847811,-0.908033,3.427572,-9.344753
17.619251,-0.565201,5.684187,-8.776559,-1.054384,3.295287,-9.074648
17.652067,3.454657,8.281989,-11.245817,-0.922549,3.489374,-9.313777
17.685884,1.001261,7.987641,-8.674502,-0.780388,3.423531,-9.406556
17.719219,-2.190773,4.822843,-1.660588,-1.058125,3.44523,-9.505619
17.7526,2.336525,11.251803,-2.77887,-1.074287,3.709798,-9.959935
17.785884,-5.249774,11.297444,14.51357,-1.234854,3.742869,-10.420686
17.819306,15.057822,27.618701,-33.07169,-1.886848,3.643656,-10.630036
17.852562,0.420497,0.55742,-5.907305,-0.21354,3.148937,-11.531336
17.885882,1.185322,4.150197,-9.837976,0.84653,7.706312,-13.18938
17.919257,1.773119,3.248898,-9.48841,1.127111,3.320727,-10.680616
17.95238,1.68483,3.066483,-9.462522,-4.403842,2.696267,-9.666934
17.985557,1.554641,2.915793,-9.284597,-9.601241,21.943941,-23.332179
18.019203,1.528902,2.967869,-9.415235,-13.372543,-1.422356,-11.112485
18.05256,1.624524,2.842168,-9.329789,1.082667,-1.159583,-9.33772
18.085905,1.565265,2.913997,-9.32515,1.276903,-0.280132,-7.177774
18.119205,1.625571,2.881076,-9.318865,1.449292,1.858116,-8.207467
18.151917,1.600132,2.924622,-9.233568,2.438133,3.187694,-10.579756
18.185884,1.625571,2.953204,-9.41748,1.784791,4.460707,-12.607568
18.219279,1.670315,3.008422,-9.354779,1.575591,5.374277,-13.903476
18.252555,1.666274,2.99241,-9.394734,-2.359121,8.49119,-15.870532
18.285888,1.595194,3.011714,-9.365853,-1.266728,23.674113,-7.539012
18.319282,1.643528,3.042989,-9.430947,2.399076,22.858559,1.684231
18.352576,1.417717,3.121702,-9.316471,5.376821,32.16231,17.979151
18.385884,1.68902,3.335691,-9.677559,-4.560518,17.310098,-57.617024
18.419488,2.159647,3.535315,-9.655561,1.538329,4.912928,-6.509767
18.452575,2.40147,4.217387,-9.796525,-0.422741,3.468125,-9.02332
18.485908,0.886784,5.269527,-8.51214,-0.702424,3.456153,-9.271129
18.519215,3.280622,4.875666,-10.527232,-0.741331,3.094167,-9.265442
18.552557,2.500085,2.568621,-13.257467,-0.922249,3.313394,-9.144082
18.585874,6.392298,1.777459,-15.046748,-0.835457,3.178715,-9.187329
18.619184,2.419427,-2.7241,-8.408736,-0.811813,3.158364,-9.133008
18.651792,-1.00994,-0.554277,-9.858627,-0.687759,3.071122,-9.326646
18.685877,-1.069947,1.216298,-11.97787,-0.70003,3.145644,-9.277264
18.719257,0.942601,2.885715,-11.76029,-0.835606,3.069476,-9.161141
18.752554,0.041152,1.352772,-8.945206,-0.803433,3.280922,-9.212618
18.785887,1.310423,1.21106,-10.039246,-0.860896,3.14325,-9.204687
18.819218,1.419064,4.042305,-13.028663,-0.921202,3.08444,-9.119241
18.852565,0.770811,4.459958,-10.368012,-0.931976,3.233934,-9.116398
18.885916,1.428791,4.138974,-9.264544,-0.870024,3.210589,-9.204687
18.919216,1.732865,3.954764,-7.745519,-0.797597,3.201162,-9.158148
18.952552,2.741159,6.057397,-12.422759,-0.872418,3.202359,-9.13211
18.985917,2.902026,5.849992,-12.07439,-0.766471,3.230791,-9.241649
19.019218,-0.714246,5.431889,-8.564215,-0.814656,3.199965,-9.176405
19.052554,-0.959211,4.726622,-6.939841,-0.563256,3.215228,-9.36271
19.0859,0.010325,5.285389,-7.639721,-0.647954,3.283914,-9.352235
19.119218,3.487728,7.04938,-8.971693,-0.563855,3.273739,-9.525671
19.152218,3.444781,6.880433,-6.050513,-0.697486,3.325964,-9.653466
19.18526,2.798772,8.179633,-7.646156,-0.25993,3.473063,-9.81134
19.219089,-0.767369,12.433384,9.903819,-0.575676,3.816194,-9.878679
19.251889,-2.723053,-6.393495,-14.354949,-0.705566,3.770853,-10.453757
19.285029,13.795284,22.767127,-34.135801,-1.541173,3.896253,-11.002947
19.319254,-1.83971,5.30604,-10.441337,-0.881846,1.354119,-12.453436
19.352539,1.597289,3.892063,-10.328057,2.029009,4.24148,-11.64267
19.385884,1.612103,2.944674,-9.527916,-1.605968,3.571229,-10.417244
19.419217,1.463059,2.695369,-9.411793,-2.593013,4.753408,-7.076465
19.452557,1.408739,2.711979,-9.439028,-9.947216,9.185383,-19.252164
19.485889,1.421907,2.739214,-9.375131,-5.22194,-2.268288,-6.095257
19.519222,1.464107,2.696267,-9.356276,0.220125,0.041451,-7.739234
19.552593,1.509448,2.768993,-9.366751,-0.476762,1.365342,-8.415021
19.585894,1.559579,2.771238,-9.382164,-0.933622,3.552673,-10.802724
19.619196,1.578883,2.832292,-9.448605,3.364123,3.862584,-10.937104
19.652553,1.562422,2.712877,-9.365254,4.360595,4.431526,-11.646112
19.68589,1.563769,2.814335,-9.270081,1.216747,6.058145,-13.789747
19.719063,1.516182,2.615908,-9.285345,-1.167514,8.630058,-15.152097
19.752591,1.526657,2.65721,-9.335625,-3.529778,10.914657,-13.549421
19.785973,1.576937,2.700157,-9.361363,2.689233,23.92686,3.528581
19.81922,1.5928,2.693423,-9.340413,6.523086,30.331428,17.967329
19.852574,1.665376,2.707789,-9.48437,2.29253,1.028496,-33.156837
19.885877,1.778506,2.486916,-9.971607,-3.983196,3.597416,-20.258512
19.919218,2.311684,2.864914,-10.899693,0.411219,5.26384,-10.261017
19.952574,1.559878,2.347299,-9.355228,-0.235538,3.756637,-9.460876
19.985894,2.517144,6.475649,-9.832439,-0.609795,3.592628,-9.431546
20.019219,2.776924,6.907369,-10.006474,-0.888879,3.239321,-9.240003
20.052546,1.341848,5.093696,-9.185383,-1.013083,3.129184,-9.164733
20.085894,3.48264,0.493672,-16.320509,-1.020266,3.14759,-9.12807
20.119241,3.619713,-1.660288,-10.708898,-0.764376,3.123048,-9.252723
20.152536,2.235366,-1.221984,-8.690664,-1.118431,3.482491,-9.188227
20.185878,3.50374,-0.182564,-10.036852,-0.958014,3.316088,-9.181493
20.219238,2.649129,1.983817,-10.949075,-1.057826,3.167043,-9.110861
20.252559,2.345055,1.585467,-8.631555,-0.891273,3.261019,-9.239554
20.285923,2.373487,2.032899,-10.06274,-0.969088,3.34033,-9.160543
20.319249,1.099726,3.099405,-11.134483,-1.079674,3.316387,-9.127771
20.352581,0.650049,4.655392,-12.36365,-0.944097,3.258924,-9.162787
20.385919,-0.38982,4.993884,-9.862069,-0.776048,3.371007,-9.192566
20.41904,0.530335,4.213197,-9.299262,-0.917611,3.236328,-9.061329
20.452638,1.210462,4.387382,-9.948413,-0.671598,3.245307,-9.319015
20.48589,1.704583,4.743831,-10.434303,-0.7964,3.202359,-9.162937
20.519227,1.791675,4.982362,-10.14669,-0.869426,3.204454,-9.184785
20.552552,2.009106,4.112936,-9.322307,-0.7753,3.181409,-9.249879
20.58589,1.553294,4.399952,-7.663814,-0.703322,3.314442,-9.30435
20.619242,2.014793,5.149513,-6.418336,-0.786823,3.306062,-9.467311
20.652558,1.73945,6.642052,-6.93191,-0.710056,3.37385,-9.491403
20.685991,0.952028,9.755523,-8.88071,-0.489482,3.497305,-9.648079
20.719261,-2.358822,12.27566,7.354203,-0.418252,3.66311,-9.733077
20.752575,-2.730984,-2.592115,-4.524754,-0.28507,3.792401,-10.092968
20.785952,10.638865,16.970109,-17.274632,-1.355017,4.160972,-10.648891
20.819227,-3.18919,5.308733,-12.20847,-1.198191,2.96712,-11.875664
20.852638,1.878318,3.7089,-10.520498,2.16249,3.732394,-12.527359
20.885954,1.464705,2.607079,-9.652269,-1.825644,3.692889,-10.409912
20.919004,1.553144,2.774231,-9.511455,-1.558531,1.138932,-9.427057
20.952576,1.448244,2.717366,-9.445612,-7.720678,22.423996,-17.620008
20.985876,1.369383,2.720359,-9.419874,-8.168859,-2.105476,-7.325172
21.019218,1.317457,2.563683,-9.356126,0.690602,-0.995874,-6.709242
21.052611,1.497926,2.516396,-9.289385,2.819572,1.353969,-9.226685
21.085321,1.502565,2.690131,-9.35433,0.827675,2.478835,-10.471265
21.119309,1.61375,2.755525,-9.420472,1.935183,4.635789,-12.242589
21.152556,1.593847,2.763007,-9.425111,5.279254,4.210354,-10.842529
21.18586,1.559579,2.717067,-9.393237,4.772413,5.331329,-11.516521
21.219198,1.644726,2.771238,-9.287889,0.005537,5.334322,-11.418056
21.252548,1.616144,2.669032,-9.356126,-2.115652,9.851743,-14.54275
21.285949,1.581427,2.682948,-9.318715,-5.892939,9.294473,-10.192031
21.31925,1.63051,2.665291,-9.308988,0.755697,17.750197,-5.427999
21.352551,1.6763,2.767197,-9.356276,1.304886,20.777025,6.063831
21.385883,1.631707,2.767497,-9.401168,6.359376,21.854006,17.180507
21.418869,1.577686,2.615908,-9.53046,-1.89014,20.968718,-12.987511
21.452587,1.9277,3.060348,-10.051068,0.874513,3.725511,-7.186004
21.485883,2.115802,3.15163,-9.423016,-1.380755,2.082282,-8.642179
21.519219,0.088439,0.579717,-9.404311,-0.741481,3.019196,-9.382912
21.55255,1.464705,5.405552,-9.57655,-0.874064,3.049424,-9.387701
21.58589,2.061032,5.705886,-10.004379,-0.673842,2.903223,-9.381266
21.619219,0.503549,5.797018,-8.212255,-0.845183,3.081148,-9.289984
21.652643,4.260335,-1.274359,-14.588242,-0.841143,2.968018,-9.242846
21.685883,4.428982,-0.554128,-13.196862,-0.584805,2.889605,-9.327245
21.718597,2.125528,-1.091645,-9.456536,-0.551584,2.910555,-9.380368
21.752645,1.77701,1.854525,-10.831755,-0.666959,2.821667,-9.312281
21.785882,1.743041,2.392043,-8.752167,-0.391167,2.858928,-9.381416
21.819225,1.578733,1.599833,-8.319549,-0.581812,2.922227,-9.32096
21.851824,1.960023,2.283102,-10.320724,-0.611291,2.853392,-9.332782
21.884959,2.083479,4.847683,-12.716358,-0.561909,2.806105,-9.313927
21.918742,1.706229,4.858158,-10.484134,-0.753003,2.786052,-9.341611
21.952551,2.001025,4.300888,-8.942812,-0.686861,2.973854,-9.339067
21.984949,2.793535,3.682114,-8.575289,-0.693146,2.762409,-9.325
22.019207,2.102034,3.443583,-7.403435,-0.625508,2.786501,-9.35029
22.052573,1.877869,4.604364,-9.128818,-0.704369,2.802513,-9.272775
22.085891,1.58412,6.227541,-9.96622,-0.619671,2.949014,-9.341611
22.119218,1.305485,6.692781,-9.836629,-0.598273,2.794582,-9.334128
22.152553,-0.744474,5.822308,-6.481335,-0.585553,2.925969,-9.317518
22.185892,-0.260828,6.990121,-5.898775,-0.464791,2.874791,-9.425261
22.219219,0.438155,11.128946,-6.75174,-0.49457,2.799969,-9.492301
22.252627,-3.14729,16.373931,9.673219,-0.603061,2.815532,-9.758815
22.285874,14.365873,28.011214,-40.038616,-0.950682,3.167193,-10.144894
22.319217,-2.358373,2.793834,-9.289684,0.019304,3.433557,-10.455553
22.352549,2.138847,2.241202,-9.003717,-0.53662,3.480994,-10.640062
22.385091,0.938561,3.128286,-9.770338,-0.860896,3.583051,-10.861085
22.419305,1.13564,2.552759,-9.297316,0.451772,1.604472,-12.14966
22.452579,1.337658,2.882572,-9.154707,0.486489,4.197185,-10.797038
22.485725,1.634999,2.74505,-9.469406,-2.389648,2.766,-8.833573
22.51922,1.489845,2.717067,-9.469705,-2.873294,13.973808,-18.142561
22.552582,1.392128,2.741309,-9.466263,-8.83073,1.609859,-14.616225
22.585883,1.5298,2.756872,-9.469855,-4.10291,-3.513766,-7.923444
22.619217,1.426995,2.74101,-9.346848,1.195348,-1.160631,-8.813072
22.652551,1.467698,2.63626,-9.227134,-0.257835,2.079139,-10.451213
22.685979,1.454529,2.74954,-9.275019,0.527042,3.44942,-11.374211
22.719316,1.551199,2.73682,-9.343406,1.772072,4.256743,-12.261294
22.752675,1.544315,2.714074,-9.382313,1.034182,5.333275,-12.192159
22.785979,1.579332,2.74505,-9.321409,0.411668,8.443154,-14.935264
22.819227,1.58008,2.738616,-9.351188,-3.722518,10.634975,-12.106414
22.852627,1.537132,2.742357,-9.370941,-0.951131,14.129736,-8.254604
22.885974,1.59699,2.922826,-9.524774,-0.185408,19.071395,0.194985
22.919307,1.57155,2.909807,-9.558443,5.667727,21.417198,12.980927
22.952608,1.667471,3.012761,-9.674865,1.411881,-4.214245,-25.966493
22.98598,1.98651,3.154473,-10.38956,-5.699002,16.207977,-19.247076
23.019309,0.51971,0.029779,-9.413589,-0.939907,5.659796,-8.403499
23.052631,2.036192,3.934861,-9.713174,0.278336,4.307622,-9.963527
23.085876,1.670764,6.332141,-9.690279,0.759588,4.437662,-10.170333
23.11872,2.002672,4.502607,-9.814632,-0.802834,1.732716,-8.692759
23.15256,2.394736,4.943155,-12.634953,-1.593248,1.918722,-8.461261
23.185971,5.956089,0.186754,-14.129736,-0.561011,2.982384,-9.416881
23.219306,2.711231,-0.832913,-9.889753,-0.867181,2.754627,-9.223093
23.252664,1.479221,2.27981,-11.842593,-0.916264,3.501046,-9.334877
23.285978,-2.719761,1.648766,-6.031958,-1.258198,3.237226,-9.105025
23.319301,-3.300974,2.45609,-8.010387,-0.998567,3.119756,-9.087517
23.352613,-1.407392,3.279874,-10.152226,-1.186968,3.229145,-9.095149
23.385887,1.907948,4.608404,-11.937616,-0.981209,3.194129,-9.108617
23.419225,3.229444,4.63968,-11.117723,-0.920154,3.065885,-9.059534
23.452537,3.281221,4.150347,-9.432294,-0.553529,3.035058,-9.293126
23.485909,3.054362,3.910769,-8.278547,-0.881247,3.039548,-9.093802
23.519225,1.970648,3.476505,-7.476611,-0.9848,3.02593,-9.086769
23.552539,2.46028,4.475372,-9.448755,-0.722775,2.96742,-9.243445
23.585924,1.375668,7.288809,-11.703425,-0.703471,3.485932,-9.236112
23.619248,-0.768865,5.187822,-8.018019,-0.911326,3.400187,-9.179996
23.65253,-0.652144,4.604065,-8.016522,-0.84234,3.31923,-9.235214
23.685876,0.970435,4.109944,-7.624607,-0.934071,3.332848,-9.138695
23.719218,2.048911,5.73327,-10.321473,-0.918808,3.539654,-9.222944
23.752544,2.394287,4.630402,-9.00222,-1.038672,3.588288,-9.096346
23.785739,0.630745,4.409379,-7.783828,-1.091196,3.76352,-9.001771
23.81893,-1.286331,4.212449,-5.53215,-1.085959,3.847171,-9.283699
23.852975,0.107743,6.394243,-2.018833,-1.066056,3.826819,-9.409698
23.885916,-1.61764,18.987745,7.273395,-1.538778,3.962396,-9.942128
23.919242,8.715355,22.394666,-29.222724,-1.270469,3.841484,-9.843962
23.952648,-3.722967,-0.098465,-12.291821,-2.382615,3.337487,-10.387764
23.985872,1.84405,5.384453,-11.398303,-0.385929,4.203021,-10.35589
24.019219,1.440463,3.67538,-9.197504,0.308264,6.301016,-11.192395
24.052526,1.601628,3.066334,-9.372587,-1.604322,3.483987,-11.113084
24.085961,1.521869,2.945721,-9.314974,-1.914831,6.803068,-9.246587
24.119273,1.503014,2.868655,-9.420023,-5.341804,13.678562,-23.277409
24.152883,1.570353,2.958591,-9.391741,-10.254582,-1.163773,-12.068404
24.185947,1.528303,2.848304,-9.390394,-0.909679,-2.905767,-8.361
24.219278,1.572747,2.850997,-9.318715,1.451088,-0.132434,-8.788231
24.252577,1.561674,2.902624,-9.327395,2.638205,1.77716,-10.704259
24.285764,1.504809,2.850997,-9.311981,3.782375,3.743767,-13.150323
24.318317,1.507802,2.848304,-9.290732,3.151929,5.292871,-13.594164
24.352611,1.652657,2.860425,-9.388748,0.293749,7.291353,-13.786455
24.385953,1.608961,2.852344,-9.347297,-2.910256,7.509532,-12.915832
24.419299,1.626619,2.846658,-9.367798,0.357198,23.808342,-4.373914
24.452619,1.657146,2.955897,-9.53869,3.885629,18.910678,3.927978
24.485944,1.558681,3.026529,-9.552158,5.719054,20.308643,9.86985
24.519062,1.461413,2.962781,-9.613063,-8.326582,14.623109,-24.59711
24.552231,1.59684,3.163602,-9.776024,-8.908544,4.650454,-18.853515
24.585402,2.081982,3.847919,-9.862667,1.901663,5.069454,-10.608637
24.619284,0.152037,2.798772,-8.550448,-0.977019,2.748941,-9.252124
24.652618,0.827525,4.905445,-8.414273,-0.824682,3.293043,-9.309737
24.685939,1.45019,5.571057,-9.825855,-1.136987,3.360831,-9.126574
24.719283,1.681089,5.019473,-9.679953,-0.640621,3.254435,-9.33787
24.752558,1.019368,2.111911,-10.334342,-0.692697,3.119008,-9.265742
24.785884,5.903414,1.340202,-14.037556,-0.738189,3.10569,-9.208578
24.819222,2.61531,-0.314549,-12.425303,-0.785625,3.191734,-9.207082
24.852628,-3.105241,1.116785,-9.274421,-0.693445,3.034909,-9.194661
24.885905,-1.284385,1.26583,-10.739874,-0.873316,3.246354,-9.218754
24.919225,0.542755,1.883406,-12.365595,-0.918059,3.237226,-9.202592
24.952626,-0.051028,1.889841,-9.398475,-0.830967,3.272392,-9.198253
24.985904,1.44585,2.647333,-9.34595,-0.872269,3.132925,-9.244043
25.019228,3.019645,3.949227,-11.141666,-0.855209,3.058702,-9.210972
25.052645,3.408866,2.997797,-8.967803,-0.902946,3.053913,-9.112807
25.08579,2.039035,3.023685,-8.634248,-0.957116,3.15582,-9.202742
25.119219,0.428727,3.964491,-10.093716,-0.952477,3.024733,-9.162787
25.152555,0.522254,5.67057,-12.346142,-1.024605,3.151331,-9.165331
25.185936,-0.93871,4.903949,-9.829147,-0.986746,3.410662,-9.181044
25.219314,-1.530249,4.271259,-8.16003,-0.881397,3.287955,-9.169671
25.25256,1.389884,4.411025,-9.162039,-1.01443,3.431462,-9.159794
25.285908,3.256231,5.204133,-9.739362,-0.780089,3.469172,-9.221447
25.319237,1.109303,5.316066,-7.142458,-0.806725,3.45346,-9.309288
25.351861,0.165056,4.359698,-4.232651,-0.678331,3.386121,-9.375729
25.385886,2.018833,9.345501,-2.303454,-0.823934,3.474111,-9.592861
25.419234,-5.254562,17.289746,9.402066,-1.137436,3.77594,-10.133521
25.45255,10.127835,28.845174,-33.521965,-1.541622,3.911517,-10.317732
25.485979,-2.147376,0.723524,-12.392681,-1.562721,3.922291,-10.249045
25.519055,1.411732,4.127452,-10.845373,-0.948736,2.737568,-11.115478
25.552552,1.810979,3.455256,-9.959486,1.90271,7.192139,-10.866472
25.585867,1.494933,2.609025,-9.354181,-1.067553,4.376757,-9.565776
25.619191,1.73915,2.913548,-9.46342,-2.731433,6.226344,-8.270466
25.652236,1.603424,2.856235,-9.359568,-6.55496,14.372307,-18.339342
25.685888,1.587562,2.757321,-9.380368,-10.207744,0.367523,-10.254133
25.719319,1.692761,2.77049,-9.583583,-0.46539,-0.873616,-7.918357
25.752574,1.672559,2.710333,-9.419126,1.314015,1.745585,-9.184934
25.785895,1.660288,2.781264,-9.381416,-0.965945,2.734126,-9.906513
25.819304,1.695904,2.821667,-9.361962,0.072577,3.658171,-11.109492
25.851743,1.694257,2.843665,-9.324102,3.118559,3.860339,-11.003545
25.885885,1.627666,2.768544,-9.240302,2.701504,3.917203,-10.504636
25.919241,1.783145,2.728589,-9.357922,-0.046838,4.120867,-11.26991
25.952549,1.815768,2.877484,-9.348045,-4.699387,7.206954,-12.40555
25.985885,1.76459,2.713476,-9.285195,-4.566055,11.792762,-14.392808
26.019235,1.669566,2.863268,-9.409698,-4.992837,17.453755,-6.074606
26.052574,1.651759,2.884368,-9.471501,3.526486,18.280083,-1.669866
26.085862,1.494933,2.884218,-9.402515,5.748833,22.841799,17.963588
26.119293,1.787485,3.119457,-9.934346,6.52967,-0.575227,-31.760369
26.15264,2.004018,3.272392,-9.755224,2.244046,8.541919,-24.194272
26.18554,1.495083,2.480182,-9.50128,0.792958,4.781391,-11.510984
26.219236,1.88595,4.226216,-9.422867,-0.253944,3.321475,-9.541534
26.252637,0.827226,5.484713,-8.785537,-0.636581,3.200713,-9.213067
26.285882,1.351725,6.947174,-9.35448,-0.744025,3.174077,-9.259457
26.319203,-0.223567,6.564986,-7.172536,-0.923297,3.329556,-9.175956
26.351894,0.986297,6.65103,-10.794045,-0.811514,3.228098,-9.177153
26.385907,1.214353,1.658792,-15.258044,-0.909829,3.372653,-9.16997
26.419206,4.641625,-0.830967,-9.947216,-0.925841,3.241416,-9.181044
26.452307,3.749304,0.501454,-9.64793,-0.936615,3.192782,-9.15321
26.485867,2.15845,1.714759,-8.908993,-0.834708,3.310701,-9.182241
26.519202,2.021377,2.247787,-9.340413,-0.975971,3.248898,-9.127472
26.552551,1.92381,2.995553,-9.77348,-0.952777,3.213283,-9.175956
26.585893,2.618153,3.626298,-9.615158,-0.775599,3.342575,-9.228032
26.619504,3.501196,4.769869,-10.198915,-0.897708,3.244558,-9.133457
26.652548,-0.090684,6.067124,-10.077555,-0.957266,3.167043,-9.117146
26.685886,-0.462696,6.097651,-9.383361,-0.875411,3.292893,-9.167725
26.719222,-0.152187,5.178245,-7.551731,-0.863889,3.336589,-9.203191
26.752548,1.03942,5.324146,-8.719994,-0.819445,3.330902,-9.189873
26.785898,3.366966,6.246396,-10.964788,-0.87167,3.268501,-9.100985
26.819276,2.612616,4.621573,-8.729721,-0.853414,3.184552,-9.181044
26.852551,1.032686,3.930971,-7.455212,-0.810915,3.228696,-9.179996
26.885885,0.464043,3.880691,-8.300395,-0.710056,3.254136,-9.225338
26.919222,0.293001,3.499849,-8.720293,-0.634636,3.433108,-9.306594
26.952129,1.308927,5.059129,-9.424064,-0.665313,3.364572,-9.2623
26.985885,1.511094,6.238764,-2.153961,-0.547244,3.410363,-9.447857
27.019205,-0.025589,16.480178,8.342445,-0.559964,3.531574,-9.81119
27.052553,18.550937,14.520154,-52.017085,-1.064261,3.621509,-10.06678
27.085933,-2.181495,5.108212,-11.47492,-0.835008,3.731646,-10.266254
27.119218,1.524862,3.80557,-9.888855,-1.072491,3.607891,-10.544441
27.15242,1.674954,3.265808,-9.755972,0.013468,3.440441,-11.128796
27.18595,1.432981,2.87928,-9.27053,-0.28507,3.823078,-11.105452
27.219223,1.723438,2.871199,-9.570714,-1.430138,4.195839,-8.827288
27.252559,1.570952,2.894544,-9.486315,-2.276967,8.681386,-15.684825
27.285879,1.494334,2.754478,-9.380518,-6.023428,0.090384,-11.294301
27.319247,1.565415,2.746247,-9.263946,-0.881846,-0.904592,-9.890351
27.352558,1.580828,2.717516,-9.408501,-1.222433,-0.130638,-9.910403
27.385885,1.625422,2.781862,-9.339516,-0.176429,0.744025,-10.116611
27.41922,1.695754,2.859826,-9.385755,1.588759,2.48542,-12.375172
27.452003,1.629312,2.824211,-9.360166,0.909829,3.458997,-12.375621
27.485884,1.683932,2.746846,-9.291779,0.723973,3.666402,-11.598077
27.518325,1.71401,2.919534,-9.331734,-0.303027,4.58491,-12.429194
27.552535,1.73915,2.79952,-9.232671,-2.513253,7.231944,-11.065048
27.585889,1.681538,2.935546,-9.295221,-0.79625,13.209581,-7.465537
27.619212,1.694706,2.822416,-9.349542,-0.432767,15.490888,-8.681236
27.652527,1.702787,3.040894,-9.5348,0.048335,17.121697,3.477702
27.684913,1.682286,2.999743,-9.40491,4.415814,20.868158,18.259582
27.719271,1.725383,2.981336,-9.659153,-1.967057,29.490435,-39.298782
27.752575,2.311385,3.177967,-10.336437,3.240518,3.972721,-7.496962
27.785936,0.307816,1.053786,-8.900014,-1.327782,3.543545,-9.188376
27.819193,2.19631,4.419256,-9.436634,-0.878703,3.673435,-9.089612
27.852553,1.685578,6.999698,-9.006261,-0.542156,3.332249,-9.333081
27.885892,1.979178,5.363802,-8.778953,-0.797298,3.377292,-9.159345
27.919217,1.528453,8.76788,-10.298727,-0.870323,3.276432,-9.063724
27.95259,1.031489,2.707639,-15.611051,-0.834559,3.373551,-9.118493
27.985899,6.030012,-0.102056,-11.556027,-0.732652,3.280622,-9.172065
28.018766,4.415215,0.640322,-9.775126,-0.624161,3.398391,-9.284148
28.052551,2.741459,1.129505,-7.790561,-0.802086,3.304116,-9.104726
28.085933,2.239257,1.329278,-7.805825,-0.688657,3.331351,-9.20783
28.119219,2.331437,1.521719,-8.560025,-0.732951,3.400636,-9.174759
28.152553,3.261318,3.70486,-12.408543,-0.768716,3.364273,-9.145578
28.18591,3.869617,3.472614,-11.341888,-0.754051,3.366817,-9.100386
28.219218,3.112723,4.366731,-10.536659,-0.662469,3.362028,-9.221597
28.252591,3.048825,4.5894,-9.448156,-0.717837,3.261917,-9.192117
28.285898,2.217409,5.209071,-9.639699,-0.698683,3.227499,-9.089013
28.318837,2.408952,4.650903,-8.107954,-0.591389,3.230043,-9.27068
28.352027,-0.939458,5.235258,-7.657379,-0.66217,3.300974,-9.173412
28.38517,-1.271217,5.962523,-8.255352,-0.64107,3.337786,-9.173262
28.418336,1.046453,7.499656,-10.568832,-0.761383,3.409914,-9.15755
28.45255,1.418765,6.909464,-9.361513,-0.597075,3.257877,-9.30001
28.485899,0.870174,4.775705,-3.296484,-0.545897,3.373401,-9.344603
28.519306,2.716618,7.370364,-5.163879,-0.316046,3.470669,-9.461026
28.552559,2.222198,10.868567,0.867929,-0.389521,3.536661,-9.697462
28.58592,6.895996,8.560774,-19.75242,-0.423041,3.67568,-10.085336
28.619208,1.531296,-3.349608,-8.241436,-0.569092,3.839988,-10.616718
28.652562,2.311235,4.232202,-10.000189,-1.26164,3.473213,-11.258088
28.685925,1.20283,2.885266,-9.025116,-0.495767,2.530911,-11.386332
28.71922,1.423553,2.765102,-9.052201,0.587199,3.705459,-10.343919
28.752552,1.509149,2.681602,-9.212469,-2.28834,3.154623,-7.877953
28.785877,1.571401,2.889007,-9.48422,-3.194578,5.630166,-17.073662
28.819227,1.614049,2.889605,-9.454142,-2.373337,-2.15441,-13.019236
28.85258,1.558082,2.769143,-9.259906,-2.934049,1.13145,-10.753193
28.885864,1.615545,2.818974,-9.294024,-1.239642,-0.149344,-7.883041
28.91922,1.690816,2.893646,-9.362261,0.647355,1.804993,-9.953501
28.952551,1.670464,2.897387,-9.337121,0.831715,3.493115,-12.496533
28.985881,1.685429,2.859826,-9.277414,0.852815,3.785368,-12.22942
29.019245,1.647569,2.890952,-9.277863,-0.026337,3.868121,-11.986101
29.052599,1.699345,2.792936,-9.260205,2.775577,6.686197,-12.69481
29.085863,1.678994,2.926118,-9.357473,-0.724122,5.988561,-9.047263
29.119262,1.708623,2.897536,-9.414487,-0.571037,20.906466,-2.577899
29.152497,1.663132,3.048825,-9.542581,5.381759,22.582916,9.327993
29.185912,1.673906,3.115267,-9.616654,2.062678,28.70885,-12.215054
29.218893,1.604172,2.88751,-9.470603,1.897323,-4.637585,-13.112014
29.25201,1.238445,2.534203,-9.356126,-1.194001,3.504039,-9.690578
29.285102,1.785989,4.334857,-9.250478,-0.765124,3.834002,-9.199151
29.319301,1.941468,5.95968,-9.156053,-0.875112,3.72596,-9.074199
29.352561,2.2213,5.177047,-8.75097,-0.895014,3.599212,-9.013444
29.386017,1.168711,7.77859,-7.61518,-0.748215,3.501495,-9.217557
29.41924,2.558296,0.680127,-12.645428,-0.773355,3.434904,-9.121486
29.452553,4.279788,1.591602,-13.173069,-0.778143,3.465581,-9.086619
29.486391,2.122536,0.524349,-8.7595,-0.720232,3.529927,-9.093652
29.519229,0.558767,0.782932,-9.029156,-0.649151,3.410961,-9.207231
29.55255,1.231412,1.972444,-10.611481,-0.637629,3.400337,-9.147973
29.585903,1.423853,3.586044,-11.017612,-0.771409,3.407819,-9.112657
29.619232,0.923297,3.267603,-8.623474,-0.736094,3.42398,-9.102182
29.652395,1.863953,2.784706,-8.739148,-0.77964,3.366966,-9.101434
29.685881,2.948565,4.245969,-10.877247,-0.652593,3.396745,-9.209925
29.71923,2.198704,4.064751,-9.596453,-0.711851,3.442686,-9.1363
29.752586,2.972657,4.077321,-9.547519,-0.767369,3.372653,-9.06103
29.785894,1.355615,4.532984,-8.848387,-0.723973,3.409016,-9.146476
29.819217,-0.738937,4.913227,-8.924705,-0.673693,3.491769,-9.14079
29.85258,-1.675402,4.828828,-8.476974,-0.744174,3.42832,-9.09036
29.885953,0.353457,5.098036,-9.345352,-0.508337,3.392705,-9.195409
29.91891,4.213646,7.700925,-14.298384,-0.496366,3.518106,-9.261402
29.952617,2.808499,5.072297,-7.497411,-0.400445,3.47845,-9.27906
29.985889,2.113258,6.179954,-2.478386,-0.551135,3.547136,-9.268435
30.01922,3.773397,12.151755,-0.33101,-0.406281,3.677026,-9.504721
30.052598,-4.566205,27.197157,3.534566,-0.351062,3.684359,-9.924769
30.085889,1.646821,-7.20845,-7.600814,-0.38159,4.043203,-10.174823
30.119219,2.177455,2.462824,-10.143846,-0.34792,3.825772,-10.734936
30.15255,0.846081,2.693723,-9.427655,-0.849224,3.098507,-11.24043
30.185892,1.326585,2.959489,-9.333979,0.954722,4.543459,-10.613127
30.219222,1.474881,2.924921,-9.613362,-0.95128,4.992238,-8.004551
30.251969,1.375518,2.826306,-9.320361,-0.299136,4.418807,-7.61084
30.285878,1.498524,2.78695,-9.370492,-5.329384,8.614795,-14.528534
30.319291,1.502565,2.746846,-9.402964,-8.110947,0.530933,-8.233205
30.352547,1.465004,2.708388,-9.333081,-0.044444,0.276839,-7.439798
30.385947,1.576189,2.970861,-9.386354,0.402988,1.158835,-8.111546
30.419241,1.541921,2.860275,-9.402366,-0.608299,1.537881,-8.775511
30.452554,1.576488,2.892598,-9.311233,1.7182,2.491256,-11.187157
30.485913,1.640087,2.927166,-9.357622,1.41248,3.18081,-12.04102
30.519223,1.606118,2.861772,-9.365553,-0.672495,6.308049,-13.221703
30.552551,1.569904,2.80371,-9.256164,-1.404249,5.339709,-11.553782
30.585862,1.607614,2.868206,-9.332333,0.370666,6.677966,-11.424491
30.619276,1.555987,2.911154,-9.323953,-1.200136,16.548714,-1.371029
30.65255,1.643229,2.834686,-9.368097,3.858244,24.664599,2.786501
30.685894,1.651759,2.838427,-9.339965,5.252767,14.784274,7.218028
30.719255,1.699495,2.741908,-9.359268,3.581554,7.683866,-5.874533
30.752629,1.738851,2.805805,-9.878081,0.388922,4.584012,-9.307941
30.785889,1.619885,3.04284,-9.981185,-0.472572,3.812902,-9.311832
30.819243,1.415922,3.293043,-9.012097,-0.632391,3.614176,-9.172065
30.852541,0.979263,3.1642,-9.030353,-0.597225,3.614925,-9.140042
30.885916,1.087306,4.609901,-8.982916,-0.648702,3.563896,-9.081681
30.919225,1.980375,5.115245,-8.926351,-0.467335,3.530227,-9.181792
30.952541,2.410748,5.200541,-9.022572,-0.548292,3.599063,-9.128519
30.985926,2.053251,3.203855,-9.870299,-0.468981,3.536961,-9.151714
31.019219,3.229594,1.06052,-11.749366,-0.499059,3.489225,-9.183288
31.051656,5.865106,1.547757,-12.08292,-0.64975,3.427272,-9.079287
31.085885,5.07948,0.249455,-7.248704,-0.576425,3.526635,-9.131362
31.119212,4.507096,0.52809,-7.420794,-0.543503,3.474709,-9.12822
31.15255,3.371007,1.68049,-10.089676,-0.513874,3.545939,-9.113854
31.185958,3.497904,2.865214,-10.826817,-0.651695,3.547286,-9.089462
31.219228,-0.115973,4.509341,-10.445976,-0.616828,3.478301,-9.0944
31.252572,-2.436636,5.563276,-9.940332,-0.628351,3.513018,-9.104427
31.285932,-2.638205,5.551005,-11.237736,-0.764526,3.292594,-9.064921
31.319228,0.164907,6.428661,-9.385905,-0.576275,3.311299,-9.112956
31.35255,4.047243,8.543864,-5.139337,-0.547394,3.411111,-9.185383
31.385907,3.565094,8.673156,-5.181986,-0.575676,3.407071,-9.174609
31.419222,1.84839,9.089612,-10.07127,-0.503848,3.464085,-9.199151
31.452536,-1.541173,5.173606,-8.142971,-0.525995,3.468873,-9.198552
31.485908,-2.767048,3.278078,-8.384195,-0.710205,3.422334,-9.045467
31.519225,0.610244,3.787463,-7.801934,-0.940656,3.481593,-9.024068
31.552544,4.266021,2.991811,-0.405083,-0.584056,3.488776,-9.22444
31.585884,-13.77613,13.628133,-22.624068,-0.718436,3.439094,-9.141837
31.619228,1.457373,2.210226,-9.546023,-0.811663,3.332399,-9.189723
31.652535,0.581812,2.612766,-9.08183,-0.921801,3.40737,-9.202293
31.685092,1.524562,3.528132,-10.036253,-0.778892,3.482491,-9.285494
31.718461,1.565565,3.165248,-9.401767,-0.388323,3.4367,-10.004529
31.751773,1.368335,2.744152,-9.318266,-0.395357,1.837017,-10.343021
31.785094,1.467399,2.98837,-9.524325,-3.225254,-0.0838,-12.508055
31.818428,1.383299,2.875539,-9.352684,-4.311812,-0.690453,-10.290945
31.851742,1.527106,3.010966,-9.50532,-12.164774,-0.255141,-7.242569
31.885123,1.348732,2.890503,-9.313777,-0.383535,5.622534,-3.1853
31.918426,1.317008,3.001838,-9.331435,0.897409,10.333893,1.248022
31.951738,1.382701,2.86267,-9.369145,9.72335,15.755307,-1.867993
31.985093,1.437321,2.675466,-9.18254,7.611888,1.015028,-7.788766
32.018431,1.390333,2.745798,-9.286692,-0.7123,2.737568,-8.620631
32.051666,1.375069,3.020244,-9.441722,-0.114327,3.25234,-9.179398
32.085134,1.330625,2.94213,-9.324102,-0.056266,3.116913,-9.097244
32.118404,1.348582,2.963379,-9.441572,-0.031425,2.94632,-9.098441
32.151715,1.304587,2.926268,-9.420772,0.379345,3.767112,-9.310934
32.185133,1.194001,2.855038,-9.4091,0.150541,3.234532,-9.212618
32.218404,1.711766,2.634763,-8.910489,-0.111185,2.901577,-8.997731
32.251694,1.478772,3.020393,-9.339965,0.290607,3.089229,-9.329041
32.285866,1.493287,2.870301,-9.271129,0.148296,3.024733,-9.103978
32.319275,1.311022,3.010966,-9.376477,0.301082,3.285561,-9.257062
32.352554,1.262089,3.012612,-9.398475,0.216683,3.265808,-9.116847
32.385899,1.068451,2.917888,-9.385157,0.631493,3.168839,-9.27906
32.419233,1.389285,2.894693,-9.264096,0.172089,3.268501,-9.02766
32.452306,1.298302,2.798622,-9.21621,0.318889,3.402881,-9.247186
32.485885,0.957416,2.98837,-9.458332,0.183462,3.24381,-9.24973
32.519261,1.314015,2.793983,-9.115949,0.057164,3.148188,-9.106372
32.552588,1.28244,2.814335,-9.257811,0.233443,3.328957,-9.251077
32.585885,1.36205,2.991961,-9.315722,0.114178,3.175723,-9.175208
32.619294,1.346787,2.985526,-9.388598,0.054919,3.225554,-9.138096
32.652549,1.32838,2.917888,-9.351337,0.331609,3.381182,-9.346399
32.685889,1.340202,2.932403,-9.386803,0.227308,3.17662,-9.261851
32.719303,1.366539,2.877784,-9.289535,0.27654,3.165697,-9.223991
32.752539,1.333019,2.894843,-9.33757,0.278037,3.244109,-9.244343
32.785883,1.296207,2.953802,-9.357173,0.181667,3.075312,-9.145279
32.81922,1.410684,2.930159,-9.309587,0.236735,3.25638,-9.221447
32.852586,1.335863,2.769741,-9.159196,0.23449,3.274786,-9.260205
32.885885,1.399311,2.939137,-9.335475,0.222669,3.263713,-9.241499
32.91922,1.354568,2.945871,-9.435437,0.288811,3.163003,-9.225488
32.952558,1.344692,2.96293,-9.368546,0.320834,3.182905,-9.254518
32.985835,1.417717,2.919085,-9.311383,0.237483,3.174077,-9.260504
33.01922,1.412929,2.962182,-9.331734,0.375305,3.178865,-9.267537
33.051678,1.361452,2.95455,-9.363458,0.345974,3.184402,-9.244043
33.085123,1.374919,2.929261,-9.30824,0.313502,3.144148,-9.261402
33.118251,1.352024,2.97984,-9.38366,0.254692,3.220765,-9.243894
33.152652,1.355615,2.916541,-9.302255,0.325473,3.249796,-9.288787
33.185866,1.349929,2.944375,-9.333081,0.228804,3.09312,-9.165032
33.219228,1.347535,3.027726,-9.410297,0.363782,3.227649,-9.251077
33.25257,1.359805,2.939436,-9.361513,0.245115,3.24396,-9.243594
33.285892,1.382402,2.966671,-9.34625,0.270854,3.247551,-9.257362
33.31922,1.394523,2.933451,-9.320511,0.297341,3.274936,-9.281155
33.352571,1.35801,2.959339,-9.353283,0.272051,3.150882,-9.208428
33.38592,1.318205,2.915344,-9.304948,0.354654,3.249347,-9.275169
33.419257,1.337958,2.964127,-9.344005,0.26816,3.167642,-9.207381
33.452561,1.359357,2.941382,-9.325,0.288661,3.233934,-9.238058
33.485908,1.334815,2.93809,-9.341162,0.251999,3.233784,-9.244043
33.519229,1.312668,2.938239,-9.31273,0.282077,3.207746,-9.231922
33.552005,1.323742,2.940783,-9.330836,0.285668,3.230043,-9.257062
33.585923,1.33676,2.9339,-9.358071,0.296443,3.183654,-9.256464
33.61924,1.336312,2.914446,-9.334128,0.287913,3.192483,-9.242697
33.652553,1.330176,2.930757,-9.342359,0.290756,3.165397,-9.229079
33.685961,1.378511,2.947218,-9.322606,0.099662,3.054512,-9.872244
33.719217,1.556885,2.94632,-9.240452,0.333105,3.136067,-9.340264
33.752554,1.306233,2.943028,-9.539289,0.264269,3.160758,-9.246288