time_tick,acc_X_value,acc_Y_value,acc_Z_value,acc_X_value,acc_Y_value,acc_Z_value
0.008922,1.176792,2.674718,-9.390095,0.609496,2.929859,-9.489308
0.033195,1.413976,2.754777,-9.552757,0.545897,3.047179,-9.238656
0.066506,1.405147,2.657359,-9.405807,0.484095,2.981037,-9.292977
0.099852,1.394074,2.685941,-9.428852,0.615631,2.999892,-9.356126
0.133197,1.355316,2.708388,-9.462672,0.594681,2.926118,-9.339516
0.166506,1.540275,2.64868,-9.390544,0.413912,2.928961,-9.300159
0.199852,1.48371,2.727991,-9.411943,0.38967,2.973405,-9.299561
0.233199,1.545961,2.722005,-9.45085,0.387725,2.959937,-9.283399
0.266552,1.335114,2.614412,-9.364506,0.706764,2.994954,-9.358969
0.299827,1.424302,2.684146,-9.390693,0.68297,2.901876,-9.382164
0.333113,1.590854,2.720359,-9.452496,0.489033,2.93794,-9.300309
0.366317,1.50047,2.678609,-9.444715,0.408226,2.948116,-9.273822
0.399641,1.422207,2.783808,-9.537344,0.594232,2.888109,-9.352385
0.433232,1.512591,2.511757,-9.236561,0.643465,2.984329,-9.358221
0.466556,1.516931,2.681153,-9.357473,0.574629,2.900829,-9.326048
0.499879,1.463209,2.713924,-9.43424,0.398798,2.928064,-9.330088
0.533229,1.298601,2.890503,-9.763454,0.501902,3.032963,-9.330387
0.566492,1.616892,2.784406,-9.512652,0.487986,2.9339,-9.346698
0.599793,1.488199,2.6192,-9.379171,0.421993,2.986275,-9.29582
0.633229,1.74349,2.671875,-9.356725,0.600966,3.052866,-9.365105
0.666504,1.542071,2.706592,-9.40042,0.603061,2.976548,-9.326946
0.699798,1.615994,2.700008,-9.394883,0.583159,2.933151,-9.364955
0.733182,1.34125,2.787998,-9.478684,0.531232,2.966821,-9.355527
0.766508,1.441511,2.697015,-9.403563,0.424687,2.995852,-9.285046
0.799757,1.67645,2.440676,-9.101583,0.357946,2.960985,-9.197205
0.833184,1.511693,2.811192,-9.485866,0.40673,2.848154,-9.250628
0.866559,1.465603,2.408054,-9.245241,0.322032,3.087433,-9.281903
0.899782,1.314613,2.781413,-9.647181,0.487836,2.92971,-9.366751
0.933265,1.38704,2.459382,-9.189723,0.249604,2.854589,-9.16144
0.96657,1.410983,2.681003,-9.421221,0.570738,3.054063,-9.339067
0.999845,1.448843,2.463123,-9.219203,0.408525,3.086685,-9.282202
1.033203,1.45019,2.677112,-9.504871,0.402839,3.05092,-9.276217
1.066522,1.462012,2.60274,-9.365404,0.335051,2.806254,-9.269483
1.099789,1.432233,2.365107,-9.191668,0.474368,2.965923,-9.323055
1.133169,1.655201,3.179464,-9.769889,0.318291,3.075611,-9.344304
1.166514,1.568258,2.87524,-9.614559,0.463145,3.099105,-9.388299
1.199864,1.662683,2.56922,-9.422418,1.033434,3.275834,-9.317518
1.233182,1.518277,2.635063,-9.381715,0.723524,3.370558,-9.144531
1.266551,1.64712,2.620248,-9.285943,0.539762,3.342724,-8.993691
1.299814,1.60118,2.722155,-9.484969,0.841293,3.435802,-9.066567
1.333173,1.554042,2.606481,-9.432743,0.440998,3.459745,-9.278012
1.366514,1.685578,2.713924,-9.474494,0.562358,3.111077,-9.301806
1.399856,1.516482,2.550065,-9.324252,0.789367,3.141903,-9.499783
1.43317,1.614049,2.838427,-9.559191,0.085745,3.006776,-9.073151
1.466544,1.72658,2.747295,-9.578795,0.641819,2.707639,-9.3672
1.499843,1.282739,2.753281,-9.508911,0.40643,2.793983,-9.286243
1.533171,1.094638,2.961284,-9.609621,0.244367,3.064688,-9.193165
1.566473,-0.861644,3.362776,-10.361876,0.105049,3.180212,-9.181343
1.599845,-6.430906,3.756487,-9.725894,0.306918,3.157167,-9.245689
1.632274,-2.038736,3.913163,-11.182069,0.369917,3.203107,-9.271129
1.666503,3.107037,0.861794,-9.985674,0.499059,2.924023,-9.420921
1.699901,4.738145,-1.875026,-8.359953,0.372461,2.939287,-9.289236
1.733229,4.370023,-1.89029,-10.601455,0.435611,3.185,-9.415085
1.766508,3.955961,0.123156,-13.015944,0.380093,2.736072,-9.221447
1.799849,1.485655,-0.820941,-9.370492,0.381141,2.864615,-9.184336
1.833172,0.923596,-0.030378,-10.048225,0.67489,2.965474,-9.42571
1.866537,0.923896,0.298538,-10.756485,0.444739,2.848603,-9.238956
1.899851,1.612103,0.441297,-10.923337,0.480952,2.798473,-9.242697
1.933188,2.105925,1.064859,-10.680316,0.567446,3.027875,-9.315124
1.966504,2.807152,1.07294,-9.565177,0.527042,3.060049,-9.314675
1.999842,2.612467,1.811727,-9.54303,0.557121,3.199815,-9.276965
2.033178,1.515584,2.692226,-9.522529,0.644363,3.134571,-9.320661
2.066502,1.469194,3.248449,-9.4299,0.636731,2.986724,-9.345501
2.099855,1.394223,2.442023,-7.551432,0.518662,2.923425,-9.277713
2.133174,0.633139,3.020094,-7.840542,0.64526,3.106438,-9.274122
2.166503,1.616742,5.26818,-10.526334,0.60351,2.957094,-9.292228
2.199836,0.609496,4.569796,-8.24787,0.56984,3.002436,-9.198402
2.233174,0.373808,3.958804,-6.685448,0.60336,3.099704,-9.219352
2.266506,2.342062,5.447901,-8.783592,0.797447,3.152678,-9.355976
2.29985,2.734126,7.106244,-9.711678,0.535722,3.005878,-9.247186
2.333193,1.147462,4.694599,-0.590341,0.561909,2.989268,-9.335026
2.366504,1.153298,-5.165974,-6.844668,0.642268,3.007225,-9.523127
2.399805,-0.867181,9.450401,-21.139012,0.56999,3.043738,-9.893045
2.433188,6.619456,3.83894,-7.216531,0.473919,3.240368,-10.415149
2.46651,2.696416,3.669395,-10.00827,0.252897,2.617255,-10.915854
2.4998,0.603959,2.85833,-9.132559,-0.96819,0.809868,-12.024559
2.533171,1.156291,2.777373,-9.291331,-1.059921,3.711893,-12.046706
2.566513,1.243234,2.868955,-9.432743,-1.022361,3.815596,-9.680402
2.599849,1.350079,2.789195,-9.407753,-0.89277,2.374983,-11.565754
2.633151,1.254158,2.90442,-9.452197,-4.20347,0.480803,-10.604148
2.6665,1.218991,2.785304,-9.390394,-0.712899,-1.11065,-7.953822
2.699848,1.179635,2.733827,-9.286392,0.519411,-1.315511,-7.784875
2.733134,1.350079,2.910855,-9.365703,0.331609,0.843238,-9.708984
2.766505,1.167365,2.87509,-9.457285,1.090149,2.018384,-10.343769
2.799851,1.210013,2.815682,-9.443517,2.523579,3.045234,-10.817988
2.833215,1.225426,2.627132,-9.324402,1.604472,4.01073,-11.74338
2.866516,1.312069,2.843216,-9.320361,1.755761,5.0084,-11.728565
2.899837,1.303091,2.822116,-9.360765,0.168348,5.084269,-9.924919
2.933179,1.306682,2.899332,-9.427805,-1.457373,9.075994,-11.209304
2.966503,1.245778,2.750288,-9.398475,0.487237,15.711013,-9.818672
2.999859,1.230664,2.713625,-9.354779,5.334172,14.611886,-4.089891
3.033178,1.306233,2.867309,-9.447707,8.144916,14.676531,6.374191
3.066505,1.324789,2.74939,-9.400121,6.572917,-1.510945,-18.245366
3.099853,1.364893,2.616208,-9.357622,-6.459188,15.590251,-14.813455
3.133178,1.439565,2.49365,-9.418078,0.460152,1.461413,-7.533325
3.166504,1.602975,2.713326,-9.7651,0.579118,3.551326,-9.632965
3.199843,0.109539,3.312646,-10.105239,0.095472,3.226601,-9.303751
3.233178,1.78105,3.171084,-9.900826,0.253794,3.019795,-9.239853
3.266499,3.643207,3.116165,-11.112785,0.250353,3.124245,-9.285494
3.299841,2.384111,0.241673,-11.488987,0.278785,3.142352,-9.288188
3.333178,0.602163,0.597524,-12.455082,0.288212,2.946919,-9.293276
3.366429,1.920967,-0.306768,-10.94698,0.021399,3.143699,-9.17431
3.399853,2.235815,-0.225512,-10.801228,0.136923,3.312347,-9.284148
3.433214,2.814185,-0.477511,-9.436484,0.095921,3.200114,-9.246587
3.466462,2.497391,0.593634,-10.143697,0.039805,3.25638,-9.205436
3.499853,2.414938,1.069498,-10.015453,0.094125,3.215528,-9.222794
3.533109,1.700991,2.265145,-9.383062,0.158173,3.263413,-9.257212
3.566457,1.036427,2.349095,-8.810677,0.071529,3.308606,-9.236112
3.599851,1.609709,3.428918,-9.752979,0.15907,3.19338,-9.268585
3.633179,2.541685,5.053293,-11.91098,0.130788,3.235281,-9.239404
3.666521,2.926567,5.622235,-12.071248,0.043546,3.16001,-9.212918
3.699872,0.816452,4.862648,-8.726578,0.118816,3.18515,-9.259606
3.733173,-0.203814,4.399054,-7.51028,0.093078,3.125143,-9.215462
3.766657,0.572534,3.827418,-8.066653,0.181367,3.138761,-9.266939
3.799774,2.106075,4.294603,-10.584994,0.101009,3.128735,-9.22878
3.833188,1.228569,3.272392,-8.049144,0.147698,3.091474,-9.284896
3.866492,0.466587,3.065286,-6.973062,0.172538,3.039398,-9.269782
3.899432,0.969836,3.713839,-7.519558,0.110885,3.024883,-9.351038
3.932789,1.862905,5.882464,-9.616954,0.204562,3.100602,-9.480629
3.966022,0.457309,4.759394,-6.376885,0.2303,3.133823,-9.4929
3.999465,0.432468,4.575483,-5.833082,0.421095,3.321624,-9.482275
4.032819,1.100774,9.587474,0.345376,0.415259,3.601008,-9.848601
4.066093,0.107593,-6.146734,-8.162424,-0.211745,3.663259,-9.969213
4.099459,9.800117,22.334359,-24.136958,-0.399696,3.653383,-10.152526
4.132789,-0.296443,4.925797,-10.75424,-0.077814,1.24039,-10.492963
4.166126,1.173051,3.396296,-10.024581,0.106695,4.608404,-12.101176
4.199457,1.375668,2.831245,-9.555899,-2.150369,3.028324,-11.531635
4.232784,1.591752,3.102248,-9.583284,-3.571079,2.122984,-14.998413
4.26596,1.288875,2.909358,-9.371838,-6.933257,-0.756894,-13.445269
4.29913,1.258048,2.812988,-9.360615,-2.096797,-4.272605,-8.475328
4.332287,1.354119,2.94632,-9.42586,0.669353,-3.560155,-7.886782
4.366124,1.272414,2.650626,-9.251376,1.665376,-1.680191,-10.115564
4.399484,1.286181,2.75792,-9.318715,2.159048,1.490893,-12.793275
4.432768,1.298751,2.92537,-9.421969,1.694108,2.331437,-12.575544
4.46612,1.337958,2.797575,-9.320511,1.93204,3.824724,-11.220976
4.499456,1.390931,2.900829,-9.410895,-1.157937,3.753494,-10.477999
4.532788,1.431784,2.822565,-9.406107,-2.831095,8.757105,-13.390201
4.566125,1.425948,2.828401,-9.392639,-5.561031,15.564064,-11.712553
4.599793,1.431634,2.930159,-9.45489,2.830496,18.223967,-5.768885
4.633188,1.356513,2.782461,-9.348943,6.239961,16.527615,5.196351
4.666509,1.434178,2.821218,-9.423166,12.733418,10.785515,4.762237
4.699854,1.479819,2.785005,-9.449354,-8.045104,9.108467,-18.38199
4.733168,1.504361,2.530612,-9.342658,0.790564,6.434048,-17.286604
4.766547,2.001025,2.51475,-9.673668,1.10227,3.00932,-8.758302
4.799864,0.564752,3.683461,-9.698359,0.167899,2.917589,-9.250777
4.833194,1.453332,2.473897,-9.487812,0.039356,3.014258,-9.369444
4.866559,4.872973,0.573731,-13.008012,0.131686,3.031168,-9.408651
4.899852,1.432083,1.190709,-13.551216,0.13812,3.157017,-9.281454
4.933185,0.336397,-0.675488,-7.39281,-0.283873,3.23962,-9.261252
4.966506,1.525011,-0.19289,-8.883105,-0.522852,3.450317,-9.176255
4.999858,2.99241,0.287763,-10.511968,-0.485891,3.244858,-9.142585
5.033172,2.084077,0.711851,-10.161504,-0.346423,3.280922,-9.235963
5.066502,1.279447,1.472786,-9.912498,-0.32278,3.422035,-9.194212
5.099845,1.502266,1.789131,-9.686388,-0.289409,3.203706,-9.176854
5.133171,0.722327,2.84561,-9.980436,-0.547394,3.199067,-9.080633
5.166527,-0.258433,2.571315,-8.23545,-0.517615,3.205202,-9.092455
5.199848,0.589444,3.102098,-9.049956,-0.32278,3.314891,-9.263946
5.233185,2.130467,4.5475,-11.014918,-0.236286,3.330753,-9.281005
5.266509,1.696801,5.937682,-11.97787,-0.459553,3.169737,-9.160243
5.299867,0.206807,5.366795,-10.249794,-0.235239,3.308456,-9.211122
5.333191,-0.149793,4.643121,-8.944608,-0.336248,3.123797,-9.134505
5.36651,1.252212,3.559856,-7.827673,-0.238681,3.292893,-9.226834
5.399824,1.605519,3.488626,-9.422268,-0.253196,3.266107,-9.181493
5.433185,2.56488,3.553272,-10.096559,-0.254692,3.100003,-9.216808
5.466505,1.354568,2.739663,-8.119776,-0.309761,3.134421,-9.231174
5.499855,1.154944,3.139659,-8.241735,-0.289709,3.13487,-9.277264
5.533172,1.33272,3.34467,-8.335262,-0.316196,3.185449,-9.241799
5.566514,1.503912,4.505749,-9.011199,-0.459105,3.02997,-9.209775
5.599853,0.896661,3.479647,-5.756315,-0.187503,3.182307,-9.384109
5.633184,1.43343,5.961925,-5.951599,-0.204861,3.33614,-9.353732
5.666533,2.059686,9.599146,-3.065136,-0.224315,3.505536,-9.399672
5.69984,14.03172,-1.740796,-31.973011,-0.300932,3.486381,-9.60603
5.733182,-1.618987,-5.120632,-7.389369,-0.99767,3.67538,-9.955596
5.766493,0.921501,2.678758,-8.898219,-0.875711,3.311449,-10.275832
5.799838,1.435076,2.740112,-9.054595,-0.72921,2.106673,-10.798534
5.833187,1.548655,2.907263,-9.250628,0.235388,4.553635,-10.72476
5.866532,1.46261,2.821368,-9.27053,-0.765274,4.723629,-10.919147
5.899853,1.624823,2.965624,-9.398475,-2.655414,4.405488,-9.242996
5.933164,1.662982,2.994505,-9.470004,-2.662896,12.344196,-10.800629
5.966546,1.523216,2.839774,-9.468059,-11.784382,-0.972978,-15.697096
5.999838,1.511394,2.736371,-9.285943,-3.265209,-1.963016,-12.059276
6.033137,1.598636,2.895142,-9.412392,1.019218,-2.199452,-9.712426
6.066509,1.582474,2.838577,-9.355228,1.005301,0.421843,-9.389945
6.099818,1.577835,2.756124,-9.306145,0.702424,2.511458,-10.288551
6.133095,1.60507,2.795779,-9.328143,-0.457458,3.708751,-11.912776
6.166509,1.665227,2.868805,-9.424214,-2.1164,5.597843,-12.754517
6.199855,1.679742,2.870451,-9.393387,6.258218,10.704858,-12.883061
6.233131,1.585617,2.884218,-9.270381,0.731305,21.186897,-8.206868
6.266502,1.688122,2.747744,-9.345651,5.732971,25.279482,5.989309
6.299852,1.721343,2.787698,-9.377525,16.459078,9.423615,-24.545184
6.333122,1.778955,2.873145,-9.47195,-2.054149,-0.462397,-10.864377
6.366508,1.821155,2.712578,-9.475242,0.761832,2.202295,-10.156117
6.399853,1.462311,2.990614,-10.080248,0.084997,3.810957,-9.201395
6.433577,1.201483,3.300974,-9.638353,0.342533,3.762922,-9.406406
6.466507,1.288725,3.70486,-9.131662,0.383984,3.245007,-9.401917
6.499842,0.612638,3.444332,-8.873228,0.350613,3.31085,-9.342808
6.532865,2.410898,4.382593,-9.894841,0.109988,3.15567,-9.440824
6.56649,2.760314,4.549744,-9.843363,-0.278336,3.290349,-9.188077
6.599838,2.864166,3.137564,-12.039523,-0.111334,3.307708,-9.09455
6.633227,4.944353,1.317307,-13.513357,-0.399996,3.416199,-9.030653
6.666494,1.436423,-0.430672,-8.466499,-0.336397,3.530526,-9.102332
6.699834,0.577771,0.906986,-9.046814,-0.418402,3.448671,-9.036189
6.732854,1.663132,1.501218,-10.513016,-0.360939,3.352152,-9.182241
6.765802,0.714246,1.559878,-8.994289,-0.244966,3.466629,-9.115949
6.799852,1.13983,2.110714,-9.834834,-0.262025,3.434006,-9.109365
6.833154,1.807836,2.504424,-10.62001,-0.145752,3.376244,-9.221298
6.866505,3.370109,3.37819,-11.310313,-0.159519,3.351403,-9.155155
6.899835,2.055795,3.185749,-9.122384,-0.181367,3.384923,-9.117296
6.933192,1.618837,3.165397,-8.68378,-0.210697,3.367864,-9.171317
6.966506,0.676685,3.842083,-9.357173,-0.180619,3.452562,-9.179697
6.999868,0.520757,4.672302,-9.968615,-0.09233,3.513018,-9.182241
7.033175,0.643315,5.046708,-10.604597,-0.2303,3.496108,-9.097094
7.066521,0.258583,4.839303,-9.803708,-0.186006,3.472165,-9.092605
7.099799,0.136474,3.791354,-8.646369,-0.064945,3.518704,-9.160692
7.133167,1.581726,3.248898,-8.23949,-0.175382,3.467826,-9.085422
7.16652,1.530847,3.212535,-7.474216,-0.221322,3.473512,-9.061329
7.199836,1.270768,3.374448,-7.229101,0.051028,3.511671,-9.166079
7.233151,2.249732,5.672665,-10.824871,-0.143657,3.413206,-9.330986
7.266469,2.551263,4.122663,-9.148122,-0.070781,3.523642,-9.348045
7.299837,1.794369,2.926268,-7.192888,0.152935,3.679421,-9.567272
7.333193,3.149236,3.41994,-5.313971,-0.480653,3.594723,-9.518937
7.366504,2.957842,8.756656,-2.048762,-0.7545,3.585146,-9.66035
7.399853,-3.204753,3.936358,-2.147227,-0.913121,3.298131,-9.619797
7.433184,-0.369618,-1.813822,-7.036211,-1.404249,3.766214,-10.282565
7.46652,0.171042,3.19353,-10.835945,-0.23479,5.158791,-11.088991
7.499836,1.769977,2.782311,-9.529113,0.467185,4.768672,-12.403754
7.533216,1.771772,3.296335,-9.722302,-2.078241,3.472614,-10.933363
7.566522,1.675253,2.834088,-9.554403,-5.283444,-2.190025,-11.853667
7.599835,1.492239,2.820171,-9.389646,-8.414124,0.541558,-15.494629
7.633098,1.494484,2.705993,-9.334428,-2.887361,-3.059749,-10.243958
7.666526,1.516931,2.688036,-9.323205,0.80478,-1.446449,-9.933299
7.699836,1.528154,2.704796,-9.288936,2.211274,0.181068,-10.012161
7.732352,1.5717,2.766449,-9.25796,2.124182,1.68483,-10.602652
7.766504,1.650711,2.911603,-9.374532,1.485954,2.974602,-11.715247
7.799864,1.570652,2.822865,-9.315124,1.291718,5.504466,-13.114259
7.833175,1.65116,2.810893,-9.39623,-0.809119,5.840564,-10.932614
7.866517,1.634101,2.714523,-9.319314,0.218329,8.815167,-13.126979
7.899807,1.658044,2.746397,-9.310335,3.271195,16.075693,-7.555921
7.933167,1.688721,2.813138,-9.380967,4.883897,18.177877,-3.082645
7.966517,1.674654,2.847107,-9.381266,8.424599,21.489475,12.24214
7.999062,1.701291,2.902175,-9.478384,-5.256957,20.416087,-42.265004
8.033194,1.767732,2.676663,-9.34595,4.252254,2.239856,-13.120245
8.066555,1.83986,2.675766,-9.456836,-0.270405,3.641262,-9.509211
8.099837,0.882145,2.863268,-9.919382,-0.105798,3.344969,-9.326048
8.133181,1.672709,3.525737,-9.942128,0.005387,3.106288,-9.226984
8.166498,2.525973,3.41979,-9.131811,0.354354,3.20176,-9.393686
8.199834,1.692312,3.529927,-9.842914,0.212942,3.028175,-9.355827
8.232155,2.013446,4.818503,-9.655113,0.083201,2.943626,-9.244792
8.266523,1.748279,2.805656,-10.274185,0.373509,3.071721,-9.416133
8.299838,4.46774,2.368848,-15.742438,0.137073,2.954401,-9.30435
8.333208,3.522894,-1.888195,-9.975348,0.024392,3.186347,-9.300608
8.366505,2.391594,-0.545748,-10.10868,0.099812,3.210889,-9.303003
8.39985,0.783231,0.900851,-9.560987,-0.023494,3.261468,-9.222196
8.433207,0.943199,1.830582,-9.713324,-0.010475,3.231839,-9.273224
8.466512,1.797062,1.790777,-9.219951,0.018705,3.362327,-9.170419
8.499847,2.991063,2.516396,-9.988068,-0.088439,3.270896,-9.213666
8.533249,2.546474,3.760827,-10.784169,0.000898,3.281819,-9.207979
8.566512,2.251079,4.310315,-11.150345,0.048784,3.264461,-9.318715
8.599208,1.195198,3.857795,-8.93967,0.026337,3.170036,-9.269183
8.633192,0.179272,3.177518,-8.442256,0.008829,3.11826,-9.182241
8.666504,0.517765,3.252041,-9.230576,-0.182265,3.137414,-9.138844
8.699844,1.141327,3.853904,-9.64778,0.086194,3.086236,-9.344304
8.733175,1.790927,5.010644,-10.339579,0.008829,2.955747,-9.202892
8.766525,1.867843,5.23032,-9.621892,-0.017808,2.996301,-9.259756
8.799756,3.323271,6.491511,-10.660564,0.250053,3.14729,-9.422567
8.83272,2.541386,6.033155,-7.424684,0.105798,3.106737,-9.291181
8.86653,1.333319,7.019751,-6.065029,0.222519,3.254285,-9.390544
8.899797,0.848924,9.319763,-3.924835,0.272051,3.280772,-9.55141
8.93319,-0.242721,13.03001,9.046964,0.117919,3.265059,-9.740858
8.965755,-2.754927,-4.66482,-18.208105,-0.227457,3.453161,-10.46094
8.999771,-3.602953,-0.476313,-12.810484,-0.677284,3.004381,-11.122661
9.033189,1.100624,3.351852,-11.256891,1.267176,0.862392,-10.992023
9.06648,1.176493,2.671276,-9.291331,1.100175,5.35632,-12.447749
9.099806,1.633053,2.810145,-9.176105,-0.786523,4.084205,-10.975263
9.133175,1.7601,2.99226,-9.494246,-0.971183,7.161911,-9.136151
9.166526,1.583372,2.844114,-9.352385,-4.846636,8.8641,-14.7108
9.200184,1.570952,2.754627,-9.213067,-2.672922,-0.176579,-10.80467
9.233184,1.666274,2.90023,-9.329639,-0.0838,-0.459703,-9.917287
9.266499,1.497327,2.67801,-9.241649,-0.031126,-0.450126,-8.46171
9.299869,1.547757,2.760015,-9.31662,0.459404,2.553358,-10.915256
9.332601,1.701141,2.788746,-9.363309,0.328167,3.477104,-10.651735
9.366513,1.671362,2.849651,-9.362112,2.100987,3.872759,-10.595918
9.399835,1.673457,2.672773,-9.267837,1.491192,4.964854,-12.142927
9.433236,1.817114,2.94213,-9.420323,-1.794069,8.088501,-13.735576
9.466518,1.701141,2.868206,-9.354929,-1.114391,6.763861,-7.454613
9.499896,1.767732,2.769741,-9.313178,3.605946,17.805116,-5.406899
9.533181,1.742742,2.714822,-9.271727,-0.651396,20.450355,-0.980161
9.566503,1.766535,2.760015,-9.314525,6.561394,18.336648,8.412777
9.599852,1.807088,2.755675,-9.315273,11.359097,29.78568,-17.911213
9.633173,2.021377,2.768544,-9.469106,1.405895,1.082966,-11.471179
9.66654,1.627816,2.700906,-9.775276,0.186754,3.924237,-8.922012
9.699835,2.117597,3.081597,-10.388662,0.37306,4.288767,-9.286542
9.733176,2.013296,3.321475,-9.476439,0.100261,3.341078,-9.126574
9.766594,0.865535,2.219504,-8.973489,0.268609,3.238423,-9.285494
9.79985,2.105177,4.69819,-9.377675,-0.006285,3.423831,-9.173562
9.832424,1.608662,2.859228,-10.547284,-0.056415,3.345717,-9.124928
9.866485,2.67382,3.307408,-13.239061,-0.00404,3.448821,-9.050256
9.899854,4.055474,-0.219077,-9.909057,0.097118,3.367116,-9.078089
9.93319,3.450317,-0.19274,-9.53899,0.092928,3.327311,-9.132559
9.966501,1.495232,1.035529,-10.000488,0.03786,3.494911,-9.184635
9.999834,1.232759,1.576189,-9.842466,0.128543,3.236927,-9.235065
10.033218,1.470242,1.490144,-9.578495,0.18032,3.339881,-9.164134
10.066503,2.398627,1.830133,-10.371902,0.174783,3.254285,-9.150816
10.099863,3.873957,3.215228,-12.034585,0.258882,3.259223,-9.178051
10.133154,1.088054,3.665354,-9.493648,0.250652,3.218371,-9.190621
10.166536,1.182927,3.377142,-9.340862,0.485442,3.254435,-9.259008
10.19988,1.915579,3.678673,-9.699407,0.395357,3.174525,-9.291331
10.233203,1.055731,3.956111,-9.135103,0.328017,3.142203,-9.254668
10.266549,1.099127,3.610435,-7.755695,0.461948,3.162404,-9.268286
10.299859,2.175958,3.712941,-8.269718,0.498012,3.087733,-9.30001
10.333207,4.521013,5.920922,-12.564022,0.543952,3.222262,-9.244043
10.366543,1.556287,3.933963,-7.322329,0.610094,3.152678,-9.236861
10.399837,0.029031,4.079566,-6.479689,0.682671,3.204454,-9.342359
10.433033,0.905639,6.008913,-8.781497,0.604707,3.271195,-9.389646
10.466545,1.901214,7.749859,-6.685897,0.814955,3.372054,-9.417629
10.499255,0.756744,7.891421,1.117085,0.85925,3.331351,-9.529861
10.533208,1.539826,1.303689,-17.722513,0.501454,3.349458,-10.078004
10.566542,-3.283914,7.493969,-8.661783,-0.101458,3.469921,-10.507479
10.599872,1.776711,4.776902,-10.579457,0.975223,2.319166,-11.113832
10.633198,1.35352,2.632219,-9.317219,-0.222968,3.427272,-11.563958
10.666545,1.853328,3.03431,-9.655711,-0.761084,3.608191,-11.942704
10.699864,1.812026,2.899482,-9.559191,-1.873979,3.77175,-12.414229
10.7332,1.66807,2.757022,-9.376328,-7.159816,4.020906,-15.193548
10.766577,1.687673,2.783658,-9.340264,-0.747167,-5.48621,-6.6639
10.799873,1.573795,2.638953,-9.267687,1.865748,-3.586044,-7.840991
10.833215,1.645175,2.838727,-9.3042,0.449078,0.237184,-11.513678
10.866543,1.741096,2.764055,-9.352535,-1.616593,1.881461,-11.813712
10.899877,1.727029,2.672174,-9.293874,3.904035,2.425862,-10.75828
10.933084,1.732267,2.751635,-9.308689,3.23124,2.821667,-11.757297
10.966539,1.744537,2.704497,-9.325748,2.297917,4.728717,-12.368289
10.999881,1.787186,2.693723,-9.299112,0.166702,5.506561,-10.250991
11.033213,1.81891,2.83304,-9.368995,-0.780687,7.226856,-6.530119
11.066544,1.808285,2.768993,-9.298064,5.247829,10.412007,-11.829425
11.099885,1.838214,2.773482,-9.317967,-0.623861,14.254389,-8.128306
11.13321,1.819658,2.659006,-9.295221,5.940526,9.094999,-1.812924
11.166531,1.85662,2.720359,-9.29582,0.763329,11.488538,5.383106
11.200022,1.929646,2.68639,-9.335475,-4.640577,41.426704,-31.169578
11.23321,1.967206,2.658407,-9.485866,1.214203,-1.056778,-8.21465
11.26654,1.844499,2.737119,-9.930905,2.86671,4.500661,-10.312943
11.299848,1.836418,3.303667,-9.699407,-0.125999,3.45331,-9.28729
11.333209,1.421907,2.935845,-8.900762,0.318889,3.253387,-9.238357
11.366542,0.752405,3.196224,-8.582771,0.51567,3.41141,-9.238357
11.399873,2.449505,5.335819,-9.552458,0.657232,3.357688,-9.334278
11.43321,1.755162,3.34018,-9.9538,0.527192,3.284064,-9.232671
11.46651,2.856085,0.76288,-11.855762,0.301231,3.332249,-9.164134
11.498876,4.600174,-0.010176,-12.442811,0.496366,3.381931,-9.18673
11.53221,1.399162,0.033819,-8.911686,0.353457,3.269698,-9.172364
11.565548,1.182479,1.459019,-9.72739,0.464342,3.37819,-9.16159
11.598815,0.997969,1.21525,-8.51618,0.55727,3.356192,-9.216659
11.632209,1.29516,2.084377,-9.890351,0.531382,3.278976,-9.256164
11.665557,2.310487,3.957607,-11.708363,0.595729,3.345268,-9.184934
11.69888,0.572983,3.652186,-9.311233,0.194087,3.276582,-9.180146
11.732209,1.204775,3.623305,-9.387102,0.312604,3.242613,-9.172364
11.76554,3.681965,4.288468,-10.901189,0.486938,3.246803,-9.207531
11.798873,2.845461,4.80309,-10.221511,0.479905,3.221813,-9.232521
11.832208,-0.332207,4.805035,-8.763091,0.396554,3.200563,-9.254518
11.86548,-0.382637,4.488091,-10.740922,0.605755,3.293492,-9.205735
11.898873,0.159819,3.701568,-9.322157,0.511629,3.203556,-9.169521
11.93221,0.551285,2.557997,-7.514171,0.619522,3.251442,-9.213965
11.965472,1.864252,2.660801,-7.699429,0.57852,3.341527,-9.244193
11.999808,2.181046,4.055474,-8.173198,0.773055,3.242314,-9.195709
12.032229,2.109217,6.09376,-8.533988,0.538715,3.165397,-9.204238
12.065498,2.314228,7.657679,-8.258495,0.658279,3.227948,-9.323953
12.098904,1.42894,3.760827,-2.048313,0.853264,3.279874,-9.457434
12.132216,1.94042,7.752103,0.087391,0.944995,3.212535,-9.612913
12.165579,-1.945059,3.311,-4.821945,0.650498,3.367116,-10.053013
12.199868,-1.393325,2.040681,-9.966669,0.851319,3.395398,-10.335689
12.233188,0.195134,3.860189,-11.515923,0.290008,2.549467,-11.069388
12.266534,1.442708,2.582239,-9.282053,-0.065244,2.754777,-11.278589
12.29985,1.578883,3.146093,-9.385606,-0.369917,3.761575,-11.660178
12.333212,1.596092,2.66978,-9.363309,-1.570802,4.913975,-9.474793
12.366619,1.724485,3.018897,-9.38381,-3.257128,4.679784,-12.722045
12.399836,1.784492,3.035507,-9.35867,-9.071206,-1.938026,-13.087174
12.433201,1.671811,2.776026,-9.393537,-2.128821,-3.124395,-12.760503
12.466524,1.771772,2.988519,-9.319015,-0.108341,-1.164671,-12.047604
12.499839,1.78539,2.881674,-9.296867,-0.032473,-0.592885,-9.577598
12.533151,1.818461,3.012612,-9.208428,1.259096,2.420924,-11.640276
12.566526,1.775214,2.976548,-9.2831,0.397003,2.809995,-12.683437
12.59984,1.762644,2.83304,-9.256164,2.31767,3.821582,-13.659408
12.63318,1.775962,2.858779,-9.232521,4.126853,6.173969,-12.100727
12.666503,1.87338,2.994505,-9.310485,0.090235,19.880514,-5.820961
12.699842,1.951793,2.982833,-9.342359,1.459019,28.702116,-2.128372
12.733208,1.874428,3.062144,-9.416282,6.677517,30.75821,26.527654
12.766517,1.801551,2.849501,-9.550662,3.125742,-0.720531,-4.078369
12.799854,2.869404,2.722005,-10.652184,0.853414,-3.53292,-8.410532
12.833173,2.304651,3.21029,-9.71063,1.166766,4.10725,-9.581339
12.866503,0.993928,4.437213,-8.681087,1.146714,4.750565,-9.405358
12.899857,3.176172,5.525566,-10.59068,0.428428,2.97999,-9.357622
12.933169,3.869168,2.353435,-13.494202,0.290756,3.364273,-9.109215
12.9665,2.117448,-1.122621,-10.669093,0.420946,3.256829,-9.018083
12.999764,-0.148895,-1.258348,-6.851552,0.277737,3.104792,-9.235813
13.03317,0.848476,0.011822,-9.141388,0.318291,3.154773,-9.195858
13.066525,2.311984,0.341784,-10.02069,0.364081,3.354995,-9.192417
13.099836,2.787848,0.951729,-10.564942,0.278037,3.212535,-9.191968
13.133172,2.132711,1.688571,-10.431311,0.522404,3.389562,-9.368696
13.166405,1.50885,3.251292,-11.033025,-0.100859,3.4786,-8.986957
13.199837,2.59406,3.698874,-10.715333,0.160567,3.560305,-9.213367
13.233169,4.166808,3.742869,-9.156951,0.351661,3.58335,-9.279808
13.266525,2.041878,2.289687,-6.595363,-0.300184,3.58335,-8.76339
13.299849,5.038478,5.222988,-13.619753,-0.397751,3.710995,-8.853924
13.333182,3.806168,4.587454,-10.073215,-0.181667,3.826071,-8.851231
13.366502,-1.548505,4.653447,-6.624693,0.057164,3.900294,-8.949546
13.399849,-0.055817,3.996963,-6.346357,0.091581,3.743468,-8.937724
13.433172,3.52469,7.481848,-12.365745,0.459553,3.832206,-9.272176
13.466519,7.09113,6.963934,-11.448583,0.27669,3.660715,-9.166977
13.499854,2.342211,3.242912,-6.795735,0.039206,3.574222,-9.152911
13.533102,2.605882,1.796613,-6.12743,-0.1468,3.712642,-9.076294
13.566507,3.156419,2.571165,-7.495914,0.282825,3.705309,-9.417779
13.599846,2.676813,4.873721,-10.476353,0.09637,3.818888,-9.208728
13.633171,3.487429,7.134078,-11.074027,-0.203664,3.761575,-9.250927
13.666519,-2.681302,8.862304,-1.522467,0.250053,3.813052,-9.552158
13.699819,-5.455683,12.283292,19.888445,0.572235,3.635725,-10.113619
13.733174,-2.85414,5.777565,11.549592,-0.672046,3.502692,-10.120801
13.76651,1.996387,4.132989,-9.489159,-1.831181,4.240283,-11.346976
13.79985,1.838663,2.827803,-8.913033,-1.145367,4.042305,-13.697268
13.833173,1.718949,2.881525,-9.149469,-0.281927,4.044699,-11.324978
13.866533,1.851981,2.834387,-9.467011,-5.172408,2.088866,-13.451853
13.899862,1.742143,2.750288,-9.272625,-8.942214,-1.283488,-12.594848
13.933174,1.800354,2.827055,-9.340713,2.408204,-1.781948,-8.769077
13.966517,1.786737,2.678609,-9.228032,0.027235,-0.982107,-7.558166
13.999858,1.835221,2.718563,-9.197504,-0.345974,1.05618,-9.228331
14.03317,1.851532,2.821967,-9.294922,1.273761,2.43933,-9.284597
14.06651,1.858116,2.77872,-9.247336,2.231476,3.67538,-10.94698
14.099852,1.930693,2.789195,-9.249281,1.517529,4.282631,-11.314802
14.133243,1.943413,2.907562,-9.267986,0.848326,5.68733,-11.776002
14.166546,1.900166,2.768694,-9.194212,-2.518491,4.652549,-9.093203
14.199839,1.939971,2.772734,-9.235065,-4.243126,6.92802,-9.863715
14.232999,1.916926,2.789793,-9.281903,3.532172,18.838102,-8.196543
14.266523,1.952691,2.755076,-9.258708,3.064688,20.072357,-3.870365
14.299839,1.969152,2.809846,-9.267986,5.292572,21.267106,7.635232
14.333148,1.98666,2.724399,-9.229378,3.417246,36.408877,-26.510146
14.366529,2.070909,2.683098,-9.393986,0.426931,-3.571977,-6.598057
14.399862,1.775813,2.692526,-9.511306,0.611142,3.341826,-7.831713
14.433164,1.962118,2.927166,-10.003032,1.11469,6.113513,-10.043586
14.466546,2.194663,3.263862,-9.609621,1.036277,3.350955,-9.399672
14.499826,1.445252,2.901277,-8.933684,0.421843,3.396745,-9.294772
14.533098,1.878019,4.806831,-9.106222,0.387575,3.192333,-9.141239
14.566518,3.054063,5.52781,-9.376777,0.351511,3.288553,-9.19092
14.599855,1.800354,4.205715,-9.411643,0.274744,3.295138,-9.166229
14.633126,2.789793,1.545512,-11.765527,0.521506,3.252938,-9.225637
14.666561,2.4516,0.727714,-11.644915,0.512677,3.14325,-9.270081
14.699861,1.616892,-0.302279,-9.50113,0.580315,3.272392,-9.232072
14.73342,2.346701,0.498161,-11.439305,0.685514,3.208794,-9.272326
14.766531,1.046154,0.890824,-10.378187,0.572983,3.268052,-9.175357
14.799863,0.508187,1.563021,-9.615457,0.640621,3.212984,-9.264245
14.833092,2.153961,1.70144,-10.416496,0.577023,3.169587,-9.186581
14.866526,3.974816,2.348047,-10.782074,0.609496,3.089379,-9.323803
14.898881,2.581939,2.35942,-9.10727,0.667856,3.233634,-9.263347
14.933133,2.22953,2.884667,-9.615756,0.600368,3.083543,-9.221597
14.966519,1.896126,2.920282,-9.553954,0.674291,2.96712,-9.29148
14.999846,4.377206,4.112637,-11.103357,0.644811,3.066483,-9.22878
15.033188,2.675766,3.531424,-9.747143,0.556522,2.974752,-9.242397
15.066508,1.260891,4.427636,-8.459016,0.64975,2.973405,-9.253471
15.099847,0.244966,5.035635,-8.196992,0.691799,2.95874,-9.341461
15.133188,1.41667,6.76835,-10.625098,0.674291,2.963379,-9.304649
15.166501,1.775663,7.33445,-10.394049,0.857155,3.034909,-9.341012
15.199877,-0.886186,7.14171,-6.643399,0.687759,3.085189,-9.418527
15.233186,-0.579717,7.05342,-5.516887,0.757193,3.115865,-9.445612
15.266499,1.289174,9.768692,-4.626062,1.174398,3.167642,-9.643291
15.299844,-4.72333,-0.252597,8.403948,0.785177,3.339282,-10.130079
15.332634,13.312087,37.925808,-24.366062,0.909231,3.110927,-10.553419
15.366503,-0.870473,3.274038,-7.436357,-0.642567,1.790328,-11.875365
15.399712,1.053786,2.87943,-9.671873,1.090897,4.080763,-12.167169
15.433192,1.906601,2.811941,-9.590766,-2.345653,2.834088,-12.895182
15.46653,1.729124,2.721856,-9.112507,-0.535572,2.413292,-8.146861
15.499854,1.917375,2.764803,-9.495444,-2.557248,13.085527,-17.48503
15.533183,1.738252,2.696716,-9.240003,-5.217451,-0.317991,-9.498586
15.566478,1.827589,2.695818,-9.353732,-0.388772,-0.800739,-8.207317
15.599857,1.698447,2.64464,-9.237309,-0.275343,-0.738638,-7.886183
15.633214,1.762944,2.707191,-9.106522,0.476762,3.354696,-11.523105
15.666502,1.830133,2.637158,-9.318865,1.956133,3.131129,-10.158661
15.699837,1.920967,2.767197,-9.327993,4.239684,2.836482,-9.649426
15.733201,2.046816,2.835734,-9.346698,4.21215,3.942942,-11.34533
15.766524,1.985163,2.728889,-9.314376,1.787934,5.921222,-13.486421
15.799837,1.950745,2.522232,-9.23297,-2.782461,6.774935,-12.193356
15.833188,1.986061,2.674119,-9.298064,-1.99923,9.030054,-8.124265
15.866522,1.971097,2.716618,-9.324701,3.422783,22.392421,-6.946126
15.899852,1.982021,2.695369,-9.325748,3.193979,21.79355,6.4541
15.933168,2.034546,2.547671,-9.283549,9.898133,17.880237,11.240879
15.966496,2.213967,2.802214,-9.531956,5.878574,5.401661,-13.912005
15.999853,2.125977,2.716169,-9.850846,0.279383,4.352664,-10.563146
16.033207,2.37214,2.476142,-10.345116,-0.064646,3.284214,-9.430199
16.066505,1.430736,2.855337,-9.219053,0.120612,3.221962,-9.461026
16.099842,2.367501,6.052459,-10.013358,0.158173,3.196523,-9.323504
16.133125,2.482427,5.50282,-9.666037,-0.105648,3.336439,-9.343107
16.16649,-0.850122,1.585617,-11.99044,-0.092779,3.107635,-9.159944
16.199839,0.921202,3.041942,-15.087451,-0.173735,2.956645,-9.177452
16.233192,3.561203,-1.625871,-9.093503,-0.040254,3.090576,-9.14064
16.266502,2.349095,0.36872,-9.771535,-0.084249,3.116913,-9.243445
16.299833,2.65706,1.386891,-9.831991,0.023943,3.181259,-9.263048
16.333189,3.770254,1.625422,-9.866857,-0.030677,3.087882,-9.273822
16.366507,2.973256,1.175894,-8.534586,-0.144555,3.122599,-9.265891
16.399852,3.47845,2.13331,-10.042688,-0.067788,3.134571,-9.251526
16.433171,2.329043,2.790841,-10.023683,-0.030078,3.127089,-9.267088
16.46637,2.048163,4.053079,-10.01261,-0.218778,3.126041,-9.208428
16.499857,1.110201,3.26476,-8.035826,-0.16745,3.215827,-9.221148
16.533174,1.409786,3.815745,-9.778269,-0.115973,3.157765,-9.252723
16.566519,1.881161,3.61702,-9.14468,-0.228205,2.956346,-9.226386
16.599834,2.071208,3.75918,-7.966242,-0.151738,3.270297,-9.239853
16.633214,2.738017,4.369873,-9.47599,-0.186156,3.108383,-9.261851
16.666518,4.63549,4.593141,-12.173903,-0.124802,3.123647,-9.258858
16.69985,2.660502,3.2691,-10.141751,-0.132434,3.221064,-9.138844
16.733082,0.273547,3.285261,-7.250949,-0.108192,3.16839,-9.208428
16.76652,0.949335,4.292209,-7.417951,-0.136175,3.086984,-9.274271
16.799837,2.026315,6.752937,-8.402152,0.077964,3.366068,-9.306295
16.833119,1.574992,8.648016,-5.074093,0.148296,3.346765,-9.474194
16.866503,0.595878,9.96218,0.295545,-0.010924,3.451066,-9.535847
16.899863,-3.317285,14.855953,11.438856,0.004639,3.388365,-9.844261
16.933191,-1.396618,-2.825408,-1.126063,-0.970883,3.13487,-10.839387
16.9665,0.710654,4.757149,-11.808175,-1.302642,1.289174,-11.614388
16.999807,1.793022,3.02174,-9.445912,1.105412,2.407755,-10.980799
17.033195,1.748578,3.004681,-9.386503,-0.277737,5.924813,-12.163278
17.066504,1.836568,2.901277,-9.516693,-0.64137,3.517058,-10.081296
17.099743,1.74364,2.780366,-9.367499,-0.424088,8.26044,-9.940182
17.133174,1.705181,2.89185,-9.175956,-4.132989,8.466349,-18.698934
17.166489,1.644875,2.828102,-9.253621,-5.739406,0.609645,-10.037899
17.199884,1.759951,2.790392,-9.302554,1.760998,-2.789345,-7.306616
17.233193,1.83133,2.904719,-9.324701,1.945059,-0.065394,-8.723735
17.266502,1.831181,2.747445,-9.476439,0.497413,2.252126,-9.132859
17.299789,1.91962,2.759416,-9.550662,2.651972,3.519452,-10.905978
17.333192,1.888045,2.913099,-9.259606,2.484073,3.861087,-11.129844
17.366506,1.803946,2.873594,-9.251376,1.348582,5.629418,-13.666292
17.399893,1.821753,2.869104,-9.285794,-1.462311,8.940268,-15.492684
17.43315,1.925755,2.800867,-9.446361,-4.308969,15.43163,-7.104897
17.466507,1.840459,2.780815,-8.806038,6.171724,30.523719,5.0711
17.500194,1.917225,2.884667,-9.151414,8.911686,32.638473,-2.476441
17.533023,1.847193,2.81239,-9.666485,-0.845632,-0.886634,1.728077
17.566505,2.2632,3.047329,-10.067529,2.339667,4.809973,-8.258645
17.600208,2.023921,3.298729,-9.423166,0.734298,5.277458,-8.947152
17.633185,0.585254,2.770639,-8.845095,0.66232,3.622407,-9.443667
17.66652,1.344542,5.067509,-8.424,0.482898,3.129333,-9.444266
17.699839,2.417033,4.922505,-9.255267,0.297191,3.385672,-9.180744
17.733206,2.234468,3.782974,-9.853539,0.278037,3.340928,-9.214115
17.766542,3.697378,2.000128,-13.27707,0.192441,3.268052,-9.300309
17.799811,4.494227,-1.765637,-9.662894,0.339091,3.337337,-9.219352
17.833206,0.427829,-0.055218,-9.17431,0.091133,3.208195,-9.19526
17.866546,0.624909,0.576275,-9.879128,0.145004,3.299477,-9.195409
17.89987,0.090983,0.505344,-9.726792,0.149493,3.308606,-9.213217
17.933205,-0.258284,1.110051,-10.18006,0.121211,3.358736,-9.172364
17.966551,1.286929,2.802663,-13.396186,0.115524,3.426225,-9.212918
17.999871,0.555325,2.541985,-8.229165,0.109838,3.4578,-9.168923
18.03321,2.253772,3.216725,-9.130315,0.147398,3.437598,-9.092006
18.066517,4.306574,2.952904,-8.857965,0.090983,3.335541,-9.214863
18.099876,3.93127,4.382743,-9.396081,0.241973,3.509127,-9.171616
18.133204,4.327973,4.732608,-9.50547,0.081406,3.408118,-9.085123
18.166544,2.664991,5.043416,-9.439028,0.220723,3.466329,-9.208279
18.199881,1.560477,4.348025,-8.580227,0.250502,3.457351,-9.167127
18.233177,1.079674,4.686368,-9.96233,0.324127,3.44074,-9.240602
18.265883,1.970798,4.002201,-10.070222,0.293599,3.565842,-9.129417
18.29988,1.698148,3.962845,-8.453779,0.078712,3.434904,-9.116398
18.33316,2.304202,3.689148,-7.110285,0.546496,3.568535,-9.260205
18.366541,2.120441,5.205629,-8.459465,0.30168,3.483987,-9.163535
18.399847,0.881098,5.079779,-6.582644,0.258733,3.568984,-9.271428
18.433185,1.272713,7.583456,-6.137306,0.378896,3.654879,-9.5137
18.466502,1.999679,11.621271,2.300311,0.515071,3.828316,-9.921627
18.49988,-8.547904,34.81907,-43.526045,-0.065394,3.4156,-10.097457
18.533189,3.597267,-2.127623,-6.481934,0.235388,2.205587,-10.050769
18.566424,2.308691,2.817477,-8.836416,0.108341,3.164499,-10.984092
18.599774,1.656697,3.642908,-9.744,-0.005836,6.099297,-12.994395
18.633188,1.410834,2.637008,-9.138695,-0.829471,3.476505,-11.573535
18.666506,1.552695,2.835734,-9.344454,-5.00406,8.259542,-13.134161
18.699857,1.675552,2.789494,-9.468957,-7.864784,4.545105,-15.920812
18.73317,1.677797,2.892449,-9.508014,-2.060284,-4.942407,-9.128369
18.766505,1.562871,2.766599,-9.356276,0.065993,-2.352537,-8.930841
18.799823,1.620483,2.756573,-9.441871,0.522553,-0.509085,-9.57251
18.833188,1.695455,2.891251,-9.53046,0.791312,1.291269,-11.070735
18.866508,1.785989,2.843515,-9.379171,3.878596,3.019495,-12.279102
18.899838,1.70593,2.761062,-9.307941,4.746674,3.854952,-11.570842
18.933185,1.694706,2.670229,-9.297017,2.037987,4.705074,-12.224033
18.966526,1.720295,2.694471,-9.256613,-1.272264,6.503931,-13.518145
18.999842,1.742143,2.718863,-9.31662,-4.563212,11.802788,-11.131789
19.033201,1.775813,2.773333,-9.433342,1.577686,26.663979,-2.104878
19.06652,1.766834,2.749689,-9.424812,9.578046,29.099268,9.380218
19.099839,1.798708,2.85414,-9.465216,-7.955618,9.811639,-39.56335
19.133141,1.979028,2.979391,-9.807449,-2.478536,0.625807,-20.111862
19.166521,2.104129,3.278527,-10.272689,2.758069,2.298665,-9.059833
19.199843,1.463358,2.701654,-9.301506,0.270405,3.88099,-9.535249
19.233201,0.689704,4.503804,-8.556733,0.203664,3.419491,-9.398475
19.266503,2.315725,5.045661,-9.379919,-0.169545,3.362327,-9.251226
19.299838,1.126662,3.334494,-10.040593,0.034568,3.22301,-9.231623
19.333168,0.372461,2.458484,-14.762277,-0.135277,3.321624,-9.137498
19.366507,3.965987,-1.768181,-9.149619,-0.065993,3.102547,-9.237459
19.399825,1.841955,0.464192,-8.80559,0.052525,3.220616,-9.200797
19.433171,3.012013,0.01676,-8.535035,-0.13408,3.272991,-9.187927
19.466504,3.001239,0.817649,-9.663193,-0.15488,3.169138,-9.20768
19.499896,1.796464,1.191158,-9.725744,-0.032921,3.359185,-9.242248
19.533169,2.030804,2.554255,-11.763432,-0.140664,3.285411,-9.212169
19.566527,0.98914,3.019046,-10.112571,-0.278186,3.305613,-9.156353
19.599859,1.48356,3.031168,-9.915342,-0.063449,3.30262,-9.226535
19.633169,3.624951,3.684958,-9.98313,-0.110586,3.186048,-9.200497
19.666507,1.58846,2.722604,-7.136921,-0.118218,3.277181,-9.156652
19.69986,2.530163,3.601756,-9.666635,-0.030677,3.280622,-9.233119
19.733173,3.407071,3.473063,-11.385135,-0.12151,3.377292,-9.254069
19.76648,1.108106,3.525588,-10.38956,-0.189298,3.426225,-9.202443
19.799856,0.98495,3.592179,-9.166079,-0.002095,3.399289,-9.133308
19.833174,1.400508,3.652934,-8.335411,-0.066591,3.473063,-9.147673
19.866515,4.168155,4.454871,-8.949396,-0.02918,3.557611,-9.147075
19.899864,3.291097,4.641924,-8.08461,-0.000449,3.632583,-9.089013
19.933162,3.512719,4.9662,-8.279894,-0.362585,3.505236,-8.94356
19.966443,2.018983,5.577941,-6.527126,-0.147997,3.573025,-9.326646
19.999853,2.043225,7.027532,-5.859419,0.227757,3.579459,-9.45504
20.033175,0.043097,11.055471,1.467249,-0.020202,3.876201,-9.618151
20.066457,8.891934,13.13057,-33.310819,-0.866283,3.5413,-10.281967
20.099893,1.162726,-10.350952,-8.443454,-1.136239,2.983132,-10.378786
20.133189,2.490208,3.485334,-10.201609,1.277053,0.603061,-10.38971
20.166788,1.464256,3.086685,-9.452646,-0.005836,5.566269,-12.454483
20.199506,1.496579,2.769891,-9.320212,0.805528,3.639316,-11.122062
20.233181,1.682585,2.797874,-9.310186,-2.830945,8.061266,-10.136664
20.266626,1.80649,2.83319,-9.477337,-5.731475,8.84749,-17.284509
20.299821,1.591902,2.519987,-9.139742,-4.179228,-1.805891,-9.422119
20.33317,1.724485,2.792936,-9.32949,0.098615,-1.974988,-8.284234
20.366467,1.659091,2.676364,-9.296718,-0.70841,-0.445786,-8.492537
20.399864,1.736307,2.726794,-9.277414,-0.790264,1.88176,-10.64096
20.433184,1.728675,2.705245,-9.272625,2.637457,3.108533,-11.603015
20.466513,1.761597,2.600345,-9.277114,4.743382,3.215378,-10.920194
20.499837,1.766685,2.64045,-9.287889,3.982298,4.287719,-11.740686
20.533187,1.903309,2.710632,-9.559491,1.341699,6.082836,-13.141344
20.566517,1.859763,2.70749,-9.4507,0.074373,6.443176,-12.893236
20.599839,1.858865,2.610521,-9.337271,0.663218,22.182622,-1.112146
20.633166,1.822202,2.611419,-9.302404,1.498225,21.356742,-3.4367
20.666529,1.840459,2.6822,-9.357173,2.644789,24.41275,8.943261
20.699838,1.86904,2.659155,-9.445164,-2.141839,22.799599,-27.605832
20.733189,1.841057,2.810295,-9.961731,2.213668,0.659925,-10.133371
20.766502,2.050557,3.159262,-10.529776,1.720894,4.008785,-9.415385
20.799835,1.794518,3.126939,-9.192117,0.331309,3.171982,-9.302554
20.83312,1.509598,4.649556,-9.285644,0.323528,3.283017,-9.310784
20.866521,0.806725,5.063618,-9.225787,0.16356,3.257727,-9.298214
20.89981,1.837166,4.804885,-9.412242,0.169845,3.266556,-9.270081
20.933169,-1.364295,2.356876,-10.862432,0.078114,3.149984,-9.233718
20.96551,-0.941553,-0.367972,-13.720313,0.021698,3.203706,-9.197504
20.999886,3.192632,-0.224913,-12.10387,0.21788,3.235281,-9.257661
21.033172,2.356128,-0.18032,-9.385007,-0.017808,3.20191,-9.222644
21.066524,1.910791,0.222669,-8.958974,-0.069734,3.231091,-9.180445
21.099809,1.817713,2.212321,-11.497068,0.202766,3.351403,-9.364805
21.13317,1.274359,2.140942,-9.96233,0.215635,3.090276,-9.215911
21.166524,1.03927,2.983282,-10.061094,0.098615,3.143998,-9.218305
21.199836,1.002009,3.456153,-9.179098,0.294048,3.277629,-9.302105
21.233114,2.336675,3.915857,-9.381565,0.277588,3.277779,-9.216509
21.266519,2.340266,4.760441,-10.09192,0.371115,3.31519,-9.254818
21.299859,2.922826,4.151395,-9.226535,0.530933,3.249796,-9.276366
21.333187,2.588374,3.528581,-8.650559,0.311108,3.141305,-9.185683
21.366436,2.100239,2.805656,-8.131448,0.334153,3.345717,-9.158448
21.39984,2.172816,4.100666,-10.413353,0.455064,3.217323,-9.260055
21.433173,1.454829,3.958206,-8.974686,0.588546,3.201312,-9.306744
21.465661,0.480803,3.532172,-7.600066,0.418701,3.340629,-9.21606
21.499848,0.820492,3.564944,-8.39452,0.456411,3.301872,-9.284597
21.53315,2.043823,4.29565,-9.297316,0.395506,3.221064,-9.380967
21.566502,2.128821,4.555431,-8.291117,0.593185,3.183803,-9.441572
21.599819,2.220851,5.589014,-4.685171,0.6077,3.336589,-9.63087
21.633184,1.931741,9.995401,0.705716,0.835008,3.465581,-9.750734
21.666509,5.399566,7.905487,-19.976585,0.773504,3.60445,-10.133521
21.699853,1.501817,-5.102076,-6.544185,0.405981,2.937192,-10.664454
21.733188,2.026914,2.639253,-8.934881,-0.662769,-0.012121,-10.766062
21.766524,1.350977,2.654217,-8.9271,1.373573,5.181986,-12.259648
21.799906,1.685129,2.971161,-9.30839,-1.453183,2.95874,-11.733952
21.833184,1.663132,2.855038,-9.072553,0.094125,6.95705,-8.574541
21.866509,1.55928,2.959489,-9.030204,-3.610585,9.453244,-16.798468
21.899805,1.660288,2.953952,-9.45908,-4.861001,-0.050879,-9.462223
21.933207,1.574842,2.608277,-9.209027,-0.912074,-0.326072,-8.334514
21.966507,1.605818,2.793086,-9.331136,-0.438903,-0.141413,-8.444501
21.998788,1.621232,2.821667,-9.347297,-0.619971,2.943177,-11.780042
22.033212,1.655949,2.801615,-9.240302,1.799157,2.323057,-10.253684
22.066554,1.710718,2.911603,-9.172963,5.261895,2.397579,-10.488324
22.099838,1.730022,2.787998,-9.298513,3.582452,2.831843,-12.259199
22.133171,1.7604,2.772734,-9.372437,3.673734,6.239961,-16.379019
22.166508,1.801701,2.744003,-9.371689,-0.509684,6.471309,-12.529454
22.199837,1.733314,2.73667,-9.303452,2.959788,23.025261,-3.071421
22.233185,1.837017,2.777972,-9.332931,-1.792423,28.6038,-1.427594
22.26643,1.903907,2.704347,-9.397577,10.735235,24.667443,14.702569
22.299835,2.110564,2.836033,-9.624136,2.79563,-3.706057,-13.957347
22.333205,2.128521,2.702252,-9.839323,1.258348,5.095193,-9.584481
22.366507,0.864038,3.828465,-9.740559,0.527791,4.204219,-9.485118
22.399856,1.855722,3.238124,-9.295521,0.018705,3.508977,-9.240602
22.433145,2.073453,4.106502,-9.648528,0.039057,3.388216,-9.196158
22.466506,2.109666,3.203556,-11.40803,0.131536,3.316537,-9.302853
22.49986,0.126299,1.044957,-12.471393,0.07108,3.177668,-9.147973
22.533139,3.208195,1.432831,-13.385113,-0.012271,3.229594,-9.168324
22.566502,1.787635,-1.110949,-7.672044,0.197678,3.261019,-9.289834
22.59986,2.801765,-0.915665,-8.54117,0.081555,3.292145,-9.198103
22.633213,4.332313,-0.06689,-10.708449,0.040553,3.261468,-9.23716
22.666487,1.189961,0.66636,-9.40476,0.141263,3.259972,-9.216808
22.699835,1.03089,1.784193,-10.15911,0.019005,3.326563,-9.180595
22.733168,0.929582,2.800268,-10.388213,-0.065394,3.330004,-9.122234
22.766584,1.947453,4.37122,-11.318843,0.014066,3.286159,-9.220101
22.799845,4.09049,4.719589,-11.364933,0.100859,3.315938,-9.222345
22.833109,2.864615,4.813116,-8.526206,0.038608,3.318332,-9.168623
22.866539,2.116251,4.120568,-8.255951,-0.023494,3.235879,-9.171018
22.899889,4.080913,3.57497,-9.305996,-0.126448,3.138761,-9.126873
22.93343,3.109132,3.771152,-9.048011,-0.014066,3.375346,-9.187778
22.966495,2.147825,3.716532,-8.087752,-0.010176,3.399738,-9.159196
22.999838,1.38285,4.304779,-8.604769,0.231498,3.445678,-9.155754
23.033212,1.812625,4.838256,-10.252637,0.273996,3.398541,-9.201096
23.066518,1.182628,4.326028,-9.221447,0.12989,3.374149,-9.118493
23.099854,-0.347172,4.506348,-7.65289,0.267113,3.375646,-9.228481
23.13317,0.691949,4.151095,-6.049017,0.300483,3.451365,-9.381865
23.166458,0.851917,8.454228,-4.616186,0.623113,3.625849,-9.486615
23.199861,-2.316622,19.32908,10.949674,0.169845,3.825173,-9.653466
23.23318,-4.931633,33.712012,-37.84515,-0.149044,3.645003,-9.959187
23.266503,-1.143721,5.461369,-11.54615,-0.447432,3.453161,-10.280171
23.299881,1.70593,3.567787,-9.88242,0.730707,-0.607401,-10.962693
23.333155,1.892534,3.293192,-9.700754,0.288063,4.916968,-11.853068
23.366508,1.604023,2.872546,-9.398924,0.21384,3.857346,-12.02815
23.39985,1.562871,2.737867,-9.361513,-3.076958,6.619007,-9.278461
23.433195,1.520372,2.864765,-9.356276,-5.616249,9.464467,-20.605983
23.466501,1.510646,2.698511,-9.294024,-7.326968,-3.075462,-11.763282
23.499836,1.594296,2.869553,-9.3669,0.055667,-2.482128,-10.477251
23.533193,1.67211,2.902624,-9.403263,0.098615,-1.307281,-10.313093
23.566531,1.688421,2.880327,-9.387551,-0.572534,1.289922,-10.928275
23.599766,1.649514,2.748342,-9.31258,1.75621,1.983817,-11.056818
23.633176,1.684381,2.82466,-9.309886,2.774081,2.513403,-11.39531
23.66635,1.711317,2.874791,-9.327095,1.766685,4.255696,-14.25783
23.699855,1.698896,2.838128,-9.31243,-1.098379,7.738186,-17.396142
23.733172,1.693958,2.781114,-9.344155,-2.358522,16.883017,-4.009533
23.766515,1.68079,2.802663,-9.363309,9.976097,33.147409,-1.302642
23.799777,1.741694,2.935396,-9.524923,9.973553,46.768658,17.447619
23.83321,1.733763,3.036255,-9.906662,-8.35711,1.935332,-0.040404
23.866522,2.324853,3.046132,-10.606093,3.597566,5.844605,-10.838639
23.899839,1.10646,1.438667,-9.4088,0.861644,4.30014,-9.572061
23.933175,1.326884,4.759843,-9.104127,0.107294,3.423082,-9.448156
23.966516,2.490657,5.01663,-10.014256,0.235688,3.034609,-9.407902
23.999842,1.727329,4.325579,-8.976781,-0.134529,3.10988,-9.263347
24.033173,1.243533,2.402518,-11.794857,-0.045342,3.157466,-9.32934
24.066503,2.815382,1.381504,-13.585485,0.034867,2.953652,-9.37543
24.099835,1.748428,0.363782,-10.370406,0.00015,3.077258,-9.288038
24.133219,1.421309,0.136325,-10.127835,-0.195134,3.089678,-9.225787
24.166077,0.90953,0.907584,-10.631682,-0.050879,2.965923,-9.280107
24.199789,-0.319488,2.079887,-10.394648,-0.227008,3.132625,-9.231773
24.233207,-0.02095,2.460729,-10.294537,-0.38159,3.428021,-9.085123
24.266512,1.130552,3.699024,-11.338446,-0.210997,3.270746,-9.254219
24.29988,3.676578,3.782375,-9.75687,-0.111035,3.262964,-9.229827
24.333167,4.559022,4.197335,-8.41577,-0.070781,3.32357,-9.219801
24.366504,5.188869,3.78462,-7.817946,-0.173586,3.364871,-9.190771
24.399817,5.347191,5.014685,-9.287889,-0.241823,3.300525,-9.159495
24.433174,3.052716,4.721684,-7.827972,-0.107294,3.32342,-9.215162
24.46652,1.000513,5.211016,-8.446297,-0.127645,3.201312,-9.251376
24.49984,1.308777,4.74832,-10.162851,-0.103703,3.291995,-9.211421
24.533171,0.613536,5.119734,-11.018509,-0.114028,3.335691,-9.206782
24.566505,0.08799,3.600709,-8.191605,-0.10475,3.277629,-9.210823
24.599833,2.960536,4.139274,-8.810528,-0.205909,3.252489,-9.191519
24.633174,4.110392,3.926032,-8.382699,0.000299,3.380434,-9.294473
24.666424,2.623091,3.916605,-6.501836,0.139916,3.367116,-9.388299
24.69984,3.109132,6.841376,-4.956324,0.173287,3.548483,-9.508612
24.733169,1.480118,12.381757,4.316451,-0.031874,3.749454,-9.740259
24.766526,-10.479346,34.456037,-44.982071,-0.70841,3.406622,-10.183203
24.799842,2.262152,-3.001838,-5.31427,-0.372162,2.450104,-10.294238
24.833177,1.833575,6.822521,-10.816491,0.223267,3.618067,-10.7921
24.866506,1.317157,3.416947,-9.261552,0.904891,5.166872,-11.907239
24.899836,1.555538,2.641198,-9.3461,-0.827226,4.040659,-10.571975
24.93319,1.62617,2.807152,-9.32949,-1.754115,5.986616,-8.48281
24.966506,1.717452,2.830197,-9.414187,-5.323099,2.940334,-13.555406
24.999853,1.643977,2.645987,-9.264395,-6.109024,0.04205,-10.816491
25.033174,1.542819,2.698511,-8.878166,-0.704519,-0.294048,-9.533004
25.06652,1.584868,2.645388,-8.963613,-0.928684,-0.067489,-8.712661
25.099894,1.720445,2.775128,-9.441123,0.064496,1.357262,-10.506581
25.133215,1.66373,2.708088,-9.266041,0.736543,2.991213,-12.123473
25.16631,1.746932,2.809247,-9.257062,3.295736,2.629376,-11.326475
25.199808,1.746333,2.672024,-9.339815,4.278441,3.966286,-11.69714
25.233191,1.819808,2.736072,-9.368247,2.116999,4.102461,-12.187819
25.266513,1.797361,2.681302,-9.335326,0.213391,7.05357,-14.514468
25.299771,1.79377,2.731433,-9.322307,1.187566,15.163769,-10.068277
25.332603,1.844948,2.69058,-9.348494,-2.65706,21.567589,0.313352
25.365932,1.816366,2.690879,-9.339366,0.426482,27.255068,14.564748
25.399281,1.900465,2.790242,-9.543329,-0.696588,19.327733,-54.297195
25.4326,1.840608,2.722903,-9.964125,3.261917,2.13316,-9.020626
25.465939,2.33458,2.960835,-10.108531,-0.581213,3.452861,-9.369145
25.499168,0.996472,2.5354,-9.231623,0.372312,3.300375,-9.292079
25.532606,1.672559,4.766577,-9.381715,0.479905,3.108982,-9.456985
25.565965,1.025353,3.943092,-9.671723,0.004789,3.267304,-9.317219
25.599225,-1.983368,-0.038458,-12.582727,0.08395,3.105241,-9.239255
25.632593,-1.461114,4.886291,-15.641579,-0.167301,3.006626,-9.19107
25.665876,5.477979,-0.981209,-7.071826,0.276091,3.120504,-9.342359
25.699175,4.555131,-1.19011,-6.73917,0.230899,3.007374,-9.29582
25.7326,3.102697,0.434862,-9.538092,0.007033,3.053913,-9.223093
25.765936,2.147227,1.894779,-11.641024,0.00434,3.141604,-9.297316
25.799219,1.097781,1.796164,-10.354693,0.082004,3.095664,-9.273373
25.832605,0.275193,2.345504,-10.241863,0.064496,3.08025,-9.259307
25.86592,-0.08784,2.713924,-10.090723,0.00853,3.152378,-9.231623
25.899556,1.393774,4.423595,-12.612656,-0.001048,3.081597,-9.270381
25.932509,0.822887,3.811555,-9.451449,-0.028731,3.16854,-9.254818
25.965934,1.637094,3.240518,-7.922247,-0.010325,3.171084,-9.238058
25.999225,2.552909,3.724014,-9.114902,0.042948,3.086685,-9.257062
26.032587,5.771429,5.261446,-11.868332,0.010026,3.069027,-9.217706
26.065927,3.938153,3.045533,-7.636579,-0.044145,3.124096,-9.190322
26.099273,2.328744,3.607891,-7.077962,0.189747,3.075462,-9.307642
26.132601,1.633053,4.580271,-8.032684,0.184959,3.075911,-9.287739
26.165919,0.028731,4.848431,-7.790412,0.18421,3.090725,-9.261103
26.199267,0.207854,7.001195,-6.201503,0.128094,3.170186,-9.313478
26.232599,-0.816901,9.662595,-1.291568,0.331459,3.170485,-9.374981
26.265853,5.265786,14.065988,-9.281753,0.178524,3.283466,-9.591814
26.299267,-0.791611,-2.031253,3.915857,-0.068387,3.069626,-10.143697
26.332405,-0.249604,4.707767,-11.220079,0.285219,3.642758,-11.080162
26.365947,0.795951,2.842617,-9.259606,-0.186156,2.442921,-11.397705
26.399286,1.910043,3.105241,-9.682198,0.428877,4.125656,-11.237138
26.432604,1.72673,2.730236,-9.448156,-0.866283,5.002564,-11.670354
26.465911,1.689918,2.796527,-9.458182,-2.283252,3.915408,-10.01261
26.499286,1.623925,2.726494,-9.356276,-2.584483,5.337914,-12.590658
26.532604,1.59684,2.639702,-9.33338,-9.036339,1.141327,-16.155602
26.565938,1.624673,2.705096,-9.39219,-3.872909,-0.929133,-12.428445
26.599263,1.614198,2.507567,-9.296119,-0.041301,-1.869938,-9.913097
26.632602,1.729424,2.705096,-9.387551,1.381055,-1.117982,-9.409997
26.665967,1.779853,2.708388,-9.376777,0.979712,1.241887,-11.590744
26.69984,1.752469,2.754029,-9.401617,3.552524,2.542434,-14.012266
26.73319,1.756359,2.666338,-9.342508,3.254734,5.595299,-13.92278
26.766505,1.755761,2.601243,-9.408351,1.711616,6.787205,-12.863457
26.799808,1.806041,2.68235,-9.474194,2.381119,21.619665,9.892895
26.83319,1.728675,2.61531,-9.36271,4.030483,33.286577,-1.920368
26.866505,1.657595,2.691777,-9.441871,9.79458,28.930621,-9.059234
26.89985,1.763841,2.663944,-9.850846,-1.468895,-2.52702,-5.897877
26.933169,2.070161,2.969814,-10.608637,0.273996,3.596519,-9.361513
26.966501,1.769827,2.82915,-9.121037,-0.111185,3.188891,-9.318117
26.999853,0.978066,2.783508,-9.253471,0.09233,2.956795,-9.386204
27.033186,1.751571,5.297211,-9.64344,0.185557,2.976997,-9.401168
27.066505,2.52717,4.720936,-9.691027,-0.322481,2.965025,-9.203041
27.099835,1.396019,2.130766,-14.213237,-0.071679,3.012911,-9.270829
27.133173,5.132304,-0.892919,-12.617444,-0.137971,3.022937,-9.232222
27.166544,3.281371,-1.231561,-7.946489,-0.106845,2.870301,-9.302404
27.199846,1.94476,0.273697,-8.445848,0.05881,2.875539,-9.379021
27.233189,0.416157,1.56317,-9.278761,-0.085296,2.885415,-9.338019
27.266503,2.188229,2.229381,-11.122362,0.044294,2.980289,-9.348644
27.299298,2.291482,1.846744,-10.275532,-0.071829,2.902924,-9.258259
27.33317,1.935632,2.401021,-10.440738,-0.073924,2.841121,-9.33757
27.366491,2.40985,3.195924,-10.781026,0.042349,2.889456,-9.431247
27.39986,1.325687,4.382892,-10.508826,-0.043247,2.857582,-9.362411
27.433081,1.189811,2.518042,-8.820255,0.103852,2.877933,-9.411643
27.4665,0.566249,2.015541,-8.596239,0.151888,2.914895,-9.370941
27.499857,1.195498,2.943776,-9.919232,-0.024392,2.869553,-9.386055
27.533175,1.863354,4.754605,-11.331413,0.216982,2.926268,-9.342209
27.566515,2.070609,4.311513,-9.444116,0.243918,2.985526,-9.406256
27.599953,1.282889,4.264525,-6.918293,0.309013,3.110029,-9.465066
27.633191,2.000577,5.203833,-8.018318,0.128394,3.137564,-9.492301
27.666522,3.096561,6.487171,-9.408501,0.747616,3.282867,-9.569068
27.699767,1.884005,6.971117,-0.794005,0.332207,3.400337,-9.455788
27.733181,2.348496,11.393215,-0.034119,0.386228,3.464683,-9.50936
27.766518,-4.405937,9.181792,-6.067573,0.114776,3.383427,-10.279124
27.799857,0.034119,-6.981592,-5.768736,-0.76273,2.325751,-9.963227
27.833171,1.021163,4.894073,-12.231964,0.384732,2.719162,-10.990826
27.866527,1.651908,2.870301,-9.277414,1.527854,6.461134,-11.477614
27.899855,1.454978,2.721706,-9.068213,-1.406644,3.698575,-11.714648
27.93317,1.731219,2.785155,-9.576101,-1.592051,5.39373,-10.183352
27.966479,1.753666,2.770041,-9.474793,-10.250542,8.368333,-17.07037
27.999859,1.711616,2.616956,-9.286692,-2.877185,-2.247038,-9.247186
28.033172,1.623177,2.567274,-9.088265,1.493437,-0.600068,-8.635146
28.066451,1.802749,2.845461,-9.289086,-0.347621,-0.290008,-9.24958
28.09984,1.736307,2.672922,-9.3461,-0.484544,1.605519,-11.607803
28.133189,1.789879,2.589122,-9.275768,3.199217,2.355829,-11.648057
28.166461,1.809782,2.578498,-9.135852,4.591195,1.930693,-10.684207
28.199854,1.84824,2.794283,-8.905102,3.281221,2.565778,-11.002198
28.23318,1.837166,2.686839,-8.850782,0.545149,3.272093,-12.796866
28.266465,1.926803,2.701654,-9.25796,-1.04765,6.35369,-15.782393
28.299836,1.877869,2.679058,-9.275468,-1.121724,23.012841,-6.950915
28.333193,1.946107,2.618153,-9.268136,2.399974,26.561773,4.515476
28.366581,1.919919,2.684894,-9.398176,12.60652,30.699999,12.860764
28.399756,1.828338,2.714074,-9.58897,-7.487983,13.724503,-18.838999
28.433174,2.048612,3.116464,-10.169585,1.666573,5.43144,-9.662146
28.466692,2.492902,3.403778,-10.023085,0.676685,4.257641,-9.599146
28.499769,-0.694942,-0.738039,-8.299946,0.059708,3.195775,-9.283699
28.533178,1.418465,4.914125,-8.649213,0.048634,3.316986,-9.266939
28.566468,3.106887,5.729679,-9.613213,-0.02933,3.357838,-9.154108
28.599856,1.089251,5.611611,-7.939307,-0.096071,3.242912,-9.204837
28.633186,2.172217,5.939777,-11.210052,-0.229852,3.299627,-9.149918
28.666642,4.495274,3.107186,-13.970965,-0.120612,3.270147,-9.208578
28.699842,4.833916,-0.328466,-9.906662,-0.023644,3.353498,-9.235214
28.733172,2.88781,0.786074,-9.727091,-0.101757,3.255632,-9.171018
28.76648,-0.306768,1.743041,-8.246673,-0.256488,3.346316,-9.159046
28.79984,0.296293,2.378575,-9.661248,-0.180469,3.347662,-9.176854
28.833185,1.620633,2.840223,-11.515773,-0.236137,3.287057,-9.181792
28.866503,2.332485,3.386121,-9.554104,-0.049532,3.240368,-9.093952
28.899843,2.676514,3.467826,-9.06522,-0.065993,3.140407,-9.238507
28.933224,2.840522,3.716682,-9.566674,0.252597,3.148488,-9.341611
28.966517,3.388814,3.545939,-9.54303,0.135876,3.098357,-9.278761
28.999863,3.011265,3.490721,-9.025415,0.055368,3.180362,-9.251825
29.033117,2.109068,4.054725,-9.624735,0.171192,3.142652,-9.278012
29.066513,2.454593,5.095043,-11.099167,0.167899,3.188442,-9.273822
29.099851,2.195711,5.132005,-10.029669,0.261576,3.199665,-9.292677
29.133172,-0.07557,4.700884,-7.864784,0.319787,3.188143,-9.305846
29.166503,0.363333,4.684124,-7.798493,0.316345,3.191585,-9.327993
29.199849,1.352772,4.883298,-6.930863,0.085296,3.267753,-9.332033
29.233189,3.00917,5.917331,-6.533561,0.160118,3.29424,-9.348943
29.26648,2.189426,8.544762,2.324703,0.113729,3.368014,-9.685789
29.299836,-6.92353,18.940607,14.116118,0.005387,3.511372,-10.252637
29.333171,-3.837144,26.817512,-7.085145,-0.816153,3.674034,-10.620459
29.366524,1.570203,3.057056,-9.906213,0.650199,1.572448,-11.287268
29.39984,1.381803,2.39713,-8.750072,1.998182,5.446105,-12.445954
29.433187,1.788981,2.812689,-9.568619,-2.620398,2.788297,-12.453735
29.466542,1.880114,2.820021,-9.491104,-0.065843,2.941831,-10.43565
29.499856,1.761746,2.88347,-9.424214,-6.297424,3.307408,-15.04585
29.533167,1.754863,2.688485,-9.351337,0.152636,-2.081683,-8.967503
29.56648,1.678395,2.670977,-9.247036,2.136901,-1.655799,-8.488646
29.599886,1.663281,2.696716,-9.34206,1.337209,-0.563705,-9.273523
29.633201,1.816516,2.868655,-9.399672,0.216384,2.109666,-11.508291
29.666576,1.84839,2.800119,-9.357473,1.364594,3.056457,-11.405187
29.699904,1.833725,2.734426,-9.307342,2.793385,2.726794,-10.623901
29.733206,1.914831,2.763456,-9.271877,2.824361,3.938453,-12.829039
29.765792,1.872781,2.726345,-9.299411,0.46509,5.086513,-12.736261
29.799836,1.897772,2.616806,-9.214414,0.619223,5.754669,-9.100237
29.832635,1.942216,2.703449,-9.322456,-1.100474,13.156458,-6.079394
29.866504,1.856321,2.805506,-9.269632,-0.975672,19.153699,-12.385797
29.899853,1.916028,2.683996,-9.241649,0.848625,16.158445,5.585573
29.933136,2.033199,2.759865,-9.354779,3.329107,16.425408,20.107672
29.966509,2.206186,2.680853,-9.588821,-1.111249,-3.944438,-10.310399
29.999895,2.37648,3.015605,-10.513165,0.430523,4.558573,-10.133671
30.033172,2.203343,3.126041,-9.211122,0.489781,2.968317,-9.64793
30.066502,-0.371713,1.992197,-8.34424,-0.085296,3.010816,-9.303152
30.099832,2.857881,4.448286,-10.676126,-0.183013,3.033412,-9.230127
30.133173,1.138633,2.073004,-10.747057,-0.268759,3.118858,-9.225937
30.166527,0.950682,2.43933,-12.291672,-0.274296,2.922676,-9.128669
30.199835,2.323955,1.726131,-11.495272,-0.134828,3.226751,-9.240153
30.233168,4.225618,0.458207,-9.126723,0.1465,3.158963,-9.4088
30.265561,4.277244,1.156291,-9.642094,-0.377848,3.061246,-9.171616
30.299837,3.079053,1.740946,-8.803046,-0.262025,3.060198,-9.205286
30.333184,2.863268,1.605669,-8.957028,0.278336,3.027426,-9.48856
30.366508,2.403864,2.760613,-10.513913,-0.123755,2.891551,-9.158597
30.399853,0.941404,3.44927,-10.344518,-0.139467,2.987173,-9.211571
30.433169,0.372312,4.322287,-10.207894,0.063449,3.145495,-9.358221
30.466504,0.758241,4.285475,-9.453544,-0.0627,3.167642,-9.244193
30.499829,1.605818,4.281434,-9.454292,-0.093377,2.9758,-9.259008
30.533182,2.457436,3.894308,-8.974237,0.047886,3.053315,-9.298813
30.56654,1.99908,3.32761,-8.607313,0.153833,3.044785,-9.297316
30.599839,2.411945,3.71728,-10.790005,-0.055667,2.989866,-9.224739
30.633177,1.707276,3.501046,-9.159196,0.081106,3.003334,-9.263347
30.666526,0.984351,4.234297,-7.398946,0.187054,3.064239,-9.323205
30.699834,1.215699,4.89512,-8.423102,0.07108,2.990614,-9.273074
30.733244,1.140579,5.415429,-9.886909,0.235089,3.08444,-9.271578
30.766082,1.157787,4.243874,-7.449824,0.245414,2.996001,-9.298064
30.799838,1.829834,3.898049,-8.265229,0.166702,3.116165,-9.396081
30.833123,1.197892,5.088309,-5.529905,0.158771,2.94198,-9.456836
30.866536,0.292552,10.852256,6.485376,0.483047,2.92971,-9.84067
30.899848,7.487235,44.146465,-50.385828,0.529586,3.306062,-10.317283
30.93311,2.096049,1.280644,-7.874212,0.122109,3.300824,-10.455702
30.966525,2.508614,3.163153,-9.497838,0.13393,2.520287,-11.299389
30.999865,1.821304,2.975949,-9.606778,1.069648,1.121574,-11.398902
31.033211,1.734212,2.752832,-9.391891,1.563619,3.624651,-14.542002
31.066542,1.483859,2.683098,-9.163835,-1.200735,3.069626,-10.918398
31.099836,1.615695,2.716618,-9.110861,-3.925434,7.391913,-22.688714
31.133121,1.947004,2.826007,-10.158661,-3.417546,-9.113555,-10.240815
31.16651,1.869938,2.843665,-9.571163,0.482599,-5.369488,-10.580355
31.199837,1.694706,2.536897,-9.387102,-1.422955,-2.191222,-11.217834
31.233645,1.80649,2.649578,-9.396081,0.165355,1.440613,-12.044761
31.266472,1.774765,2.742357,-9.306594,1.903458,2.892748,-12.911493
31.299835,1.848839,2.655713,-9.67292,1.200136,4.990293,-14.43381
31.33326,1.786587,2.653169,-9.389496,-1.570952,6.685448,-14.851015
31.366505,1.81487,2.727542,-9.31243,-3.054512,17.830556,-8.272112
31.399834,1.845846,2.675616,-9.346848,9.838575,28.536611,1.38315
31.433176,1.926952,2.771537,-9.376178,5.935288,43.089537,21.615175
31.466524,2.033049,2.809097,-9.523427,-6.221705,14.572679,3.182307
31.499839,1.87323,2.773632,-9.64344,4.156333,6.92353,-10.048674
31.533173,1.06441,3.838342,-10.167939,-0.619522,3.13053,-9.498137
31.566524,2.183141,3.447624,-9.260205,-0.187952,2.955747,-9.296718
31.599875,3.684509,3.316237,-11.145257,-0.0208,2.801466,-9.292827
31.633203,2.44322,3.951621,-10.593374,-0.312903,2.809995,-9.221447
31.666505,1.565265,0.572534,-11.106649,-0.261576,2.809247,-9.38366
31.699875,1.767732,0.167899,-11.648057,-0.354654,2.978942,-9.228331
31.73319,3.124395,-0.589892,-9.927762,-0.099363,2.691029,-9.223542
31.766506,3.829363,-1.131001,-9.980736,0.200522,3.100752,-9.513251
31.799836,3.846871,0.218329,-10.347361,-0.119565,3.004381,-9.300159
31.833188,2.678908,0.398948,-9.327843,-0.254243,2.719461,-9.240302
31.866522,2.6614,1.678994,-9.846207,0.040553,2.95874,-9.377226
31.899852,2.854589,3.756786,-11.077618,-0.127047,2.95455,-9.301806
31.933167,2.918786,4.226815,-9.215611,-0.096969,2.880776,-9.293874
31.966537,0.473171,3.817092,-7.242719,-0.09622,3.065735,-9.326197
31.999859,0.841442,4.336503,-9.366601,-0.080957,3.024434,-9.312281
32.033197,2.462375,6.824167,-14.648548,0.009876,3.00483,-9.324551
32.066471,0.276391,4.419555,-10.334492,-0.161165,2.865662,-9.280257
32.099852,0.247659,3.702765,-9.003567,0,3.007973,-9.323055
32.133172,1.082667,3.881738,-8.28169,0.001048,2.913847,-9.300758
32.166527,2.38052,4.346679,-8.659239,-0.105648,2.978044,-9.275468
32.199836,3.002885,5.24319,-9.475691,0.022446,3.004381,-9.363608
32.233218,1.750523,5.514193,-6.200904,-0.112232,2.95904,-9.288637
32.266523,2.051754,7.21279,-6.229935,-0.011074,3.067531,-9.343406
32.299851,1.576488,11.977122,1.557185,-0.116871,3.028474,-9.569218
32.333164,4.574136,6.243403,-14.269652,-0.231198,2.912052,-10.153573
32.36652,1.750224,-4.93717,-8.945655,-0.005387,3.236178,-10.940845
32.39985,2.348047,2.499935,-9.021674,0.11732,3.279425,-10.9175
32.433189,1.523515,2.571315,-9.089163,0.847428,0.577322,-11.883146
32.466521,1.569755,2.826905,-9.149768,1.37043,6.212577,-12.678349
32.49985,1.685279,2.781563,-9.391591,-1.897622,3.348111,-10.497752
32.533171,1.782397,2.79967,-9.473147,-3.860788,3.933963,-15.08341
32.566507,1.724785,2.797425,-9.331136,-7.447879,-3.425327,-12.765441
32.599856,1.785689,2.814335,-9.346998,-1.555838,-1.696951,-11.621421
32.633173,1.732716,2.761212,-9.367499,-0.977767,-1.585467,-7.588843
32.666511,1.756509,2.602291,-9.313927,0.436808,1.156141,-10.283613
32.699835,1.78958,2.552909,-9.244642,0.631793,3.571528,-12.215803
32.733134,1.791675,2.7663,-9.331585,2.244345,5.0503,-12.41827
32.766505,1.818611,2.724549,-9.269632,1.457073,5.899673,-11.759541
32.799836,1.894629,2.769143,-9.408052,1.447197,6.128328,-10.255779
32.833173,1.817114,2.752682,-9.336822,-1.063812,9.478085,-10.474108
32.866552,1.844499,2.677112,-9.301506,3.745862,15.64921,2.067168
32.899848,1.931142,2.722604,-9.390544,-0.901449,23.994648,6.035699
32.933049,1.922912,2.684445,-9.309138,13.547026,54.062106,-39.188345
32.966545,2.128521,2.572512,-9.605132,0.188849,-6.203448,-15.922758
32.999882,1.860511,2.445764,-9.919532,1.076531,3.623454,-12.009146
33.033212,2.175808,2.741159,-10.430712,0.312155,4.502457,-10.408714
33.066545,0.77096,2.538693,-8.962116,0.215935,2.880477,-9.398774
33.099876,2.10802,5.07125,-10.004978,0.046539,3.049424,-9.289984
33.133184,2.533305,4.232501,-10.808411,-0.02948,3.234383,-9.216359
33.166544,3.291247,4.075077,-16.494843,-0.009128,3.128435,-9.276067
33.19987,4.713304,-2.476142,-10.602203,-0.280431,3.219718,-9.145279
33.233179,1.658493,-0.428577,-7.298087,-0.248557,3.346914,-9.154258
33.266539,1.599234,1.34514,-8.386889,0.046539,3.166894,-9.303601
33.29988,2.068664,2.429603,-9.716017,-0.089038,3.250245,-9.221597
33.333209,1.363098,2.478835,-9.212768,-0.169695,3.202808,-9.176105
33.366542,0.886335,3.191435,-9.504871,-0.042199,3.18934,-9.230725
33.39983,1.469793,3.817841,-9.817176,0.035166,3.263264,-9.291929
33.433212,0.327568,3.171682,-9.543479,-0.055667,3.21448,-9.266939
33.466546,1.312518,2.949163,-9.46776,0.036812,3.186497,-9.231174
33.499826,1.94027,3.72566,-10.151478,-0.047287,3.114219,-9.228929
33.5332,0.132284,3.559856,-9.032748,-0.02529,3.034759,-9.215013
33.56654,0.888281,4.304779,-11.158426,-0.077964,3.100752,-9.157849
33.599807,0.867181,3.946982,-10.384173,-0.074223,3.140108,-9.294772
33.633172,0.352409,4.515326,-8.542068,0.081106,3.251292,-9.274571
33.666502,0.822288,3.381781,-7.716787,0.04205,3.257128,-9.264544
33.699789,2.131514,3.551177,-8.720592,0.124503,3.194877,-9.303302
33.733196,2.436786,3.312047,-7.710502,0.080508,3.282867,-9.333231
33.766515,2.879879,4.878659,-8.076529,0.214289,3.291546,-9.330986
33.799793,3.311598,5.315766,-5.051796,0.174783,3.217623,-9.494845
33.833193,-3.032814,20.717018,12.851037,0.312754,3.278228,-9.944971
33.866485,3.311449,29.239035,-37.047404,-0.433965,3.416797,-10.426522
33.900173,1.503762,2.609923,-11.78947,0.108042,3.432809,-10.704858
33.933159,1.477724,3.327461,-9.705991,-0.184659,1.739001,-10.881137
33.966519,1.962268,3.469621,-9.942726,0.971183,5.307536,-12.427697
33.999862,1.366839,2.123882,-8.648315,-1.40829,3.877698,-10.676725
34.033162,1.811129,2.990016,-9.407753,-4.845439,3.80557,-15.005746
34.066527,1.869789,2.726494,-9.451149,-6.143292,-1.94446,-12.56058
34.099808,1.814271,2.77453,-9.444565,-0.437855,-3.48279,-8.877119
34.133187,1.744388,2.699409,-9.351337,1.024905,-1.777908,-8.580826
34.166517,1.833425,2.830347,-9.316171,-0.317093,0.847428,-10.718026
34.199816,1.861109,2.815831,-9.227433,0.073624,1.36609,-11.072231
34.233182,1.829535,2.753281,-9.401617,2.241202,1.615695,-11.332011
34.266517,1.889841,2.7452,-9.316022,2.562336,3.912415,-12.675655
34.299771,1.87742,2.743853,-9.317817,-2.614113,6.689788,-13.383467
34.333177,1.92351,2.780516,-9.281454,-0.380542,7.077064,-14.220869
34.366502,1.881012,2.720808,-9.216359,-0.75435,18.266915,-8.031337
34.399774,1.94057,2.737119,-9.325449,-2.264547,17.859586,0.706913
34.43317,1.882359,2.773033,-9.366451,4.096775,26.341199,8.815167
34.466437,1.847492,2.677112,-9.389796,4.560518,12.798063,-42.377087
34.499838,2.014793,3.041792,-9.951106,2.50607,1.778656,-11.135979
34.533186,2.550963,3.236178,-10.258024,-0.187054,3.341976,-9.165182
34.566487,1.631856,2.434691,-9.226685,0.080508,3.615972,-9.482275
34.59985,1.812326,5.516587,-9.054745,0.102206,3.577813,-9.365553
34.633182,2.466265,5.415728,-9.046365,0.289858,3.179314,-9.436634
34.666425,2.202744,4.222774,-9.118343,0.02948,3.267454,-9.27906
34.699835,2.499336,1.022061,-11.389325,0.161315,3.073965,-9.332482
34.733169,5.877526,-1.4668,-11.478662,0.093826,2.966372,-9.272476
34.766505,4.953331,0.396554,-10.28885,0.086344,3.059001,-9.304798
34.799856,2.917289,1.792274,-9.078389,0.042199,3.166295,-9.291779
34.833206,0.798495,2.700008,-8.764887,-0.005238,3.095514,-9.262449
34.866519,1.140279,2.692226,-9.035291,-0.110885,3.230642,-9.240003
34.899834,2.667535,3.177069,-10.035804,0.146351,3.064837,-9.310485
34.933166,0.111185,3.911966,-9.09889,-0.173885,3.178117,-9.244941
34.966518,1.309076,3.356192,-9.604084,-0.192291,3.164499,-9.25811
34.999847,3.309354,2.965175,-9.9538,-0.074522,3.122001,-9.235663
35.033193,1.370729,3.178117,-9.333829,-0.183911,3.195326,-9.206184
35.066506,0.574928,3.791354,-9.972655,-0.114327,3.305313,-9.218903
35.099799,1.899568,4.314954,-10.721169,-0.116871,3.186497,-9.248383
35.133153,2.288639,4.413868,-9.864313,-0.074821,3.181559,-9.289834
35.166497,0.992133,4.11129,-8.229315,0.125401,3.314442,-9.270829
35.199863,0.020052,3.558509,-9.248383,-0.032921,3.289451,-9.223093
35.233183,0.901599,3.196972,-9.105324,0.071529,3.438496,-9.224291
35.266534,1.435226,3.876351,-9.743103,0.143807,3.436101,-9.241051
35.299839,0.473919,4.451878,-6.427165,0.078413,3.454807,-9.215162
35.33319,2.616058,6.598206,-6.546729,0.078563,3.271644,-9.282951
35.366519,0.994377,13.516649,2.295373,0.055817,3.335092,-9.58074
35.399847,5.438923,9.658854,-18.251801,-0.069734,3.532771,-9.977294
35.43321,2.032301,1.170357,-4.051433,-0.583458,3.335392,-10.489372
35.466517,2.273825,3.974966,-10.780876,-1.122621,2.839475,-10.516457
35.499873,1.6347,2.916541,-9.082728,-0.170443,2.162041,-10.8548
35.533192,1.75202,3.033562,-9.486465,-0.493074,3.095664,-11.696841
35.56652,1.817563,2.760314,-9.673369,-4.637884,4.221278,-10.521545
35.599836,1.596391,2.606182,-9.346698,-10.109877,1.922164,-16.703146
35.633141,1.651011,2.70315,-9.291929,-3.765166,-6.94448,-9.472548
35.666527,1.717452,2.713775,-9.422418,2.299414,-3.845824,-10.526932
35.699839,1.611355,2.773333,-8.551795,3.288553,-1.861409,-11.428381
35.733185,1.820855,2.77468,-9.222644,4.129547,0.298238,-12.878871
35.7665,1.750523,2.683248,-9.299711,4.268415,1.836568,-12.726235
35.799846,1.753366,2.734725,-9.181044,2.750288,2.931954,-12.892338
35.8332,1.732566,2.641048,-9.185383,0.006884,4.526849,-12.930946
35.866505,1.73511,2.76181,-9.29163,-4.369424,9.467311,-14.295091
35.899839,1.763542,2.748342,-9.30854,-5.172708,10.903584,-11.74353
35.933187,1.803646,2.780366,-9.330387,0.354354,12.072445,-5.854481
35.966462,1.769977,2.763007,-9.39219,3.983795,17.028469,0.327568
35.999844,1.749326,2.802812,-9.389047,3.464982,18.321534,13.065625
36.033196,1.813224,2.700906,-9.478384,-0.60366,-4.814762,-23.866404
36.066508,1.95284,2.743105,-9.854437,-6.485825,11.932529,-18.133882
36.099838,1.924857,2.906365,-10.03775,3.489075,4.127452,-10.645599
36.133191,2.02437,3.209243,-9.018681,2.148125,3.53292,-10.325363
36.166495,0.776797,4.7567,-8.794217,0.507888,2.79548,-9.313927
36.199854,2.061182,5.524369,-9.724098,0.379644,3.170635,-9.506367
36.233189,2.228333,5.610114,-8.843749,0.182265,3.554918,-9.407005
36.266448,2.359869,4.655392,-10.584844,0.103403,3.407071,-9.297915
36.29985,6.632774,2.612915,-13.103036,0.153085,3.339881,-9.298663
36.333219,5.290626,0.744773,-9.395632,0.272949,3.155222,-9.323653
36.366549,3.174825,1.552097,-8.155391,0.235388,3.139509,-9.177303
36.399859,3.229594,1.328081,-8.086705,0.222669,3.165397,-9.256164
36.433148,4.425541,2.637756,-10.886075,0.116422,3.259223,-9.247186
36.466428,5.055238,3.638419,-9.78201,0.036064,3.237675,-9.232222
36.499842,4.733057,4.519367,-7.685213,0.156676,3.244259,-9.275468
36.533168,3.00483,6.030162,-9.08617,0.055817,3.240219,-9.20349
36.566439,1.441062,7.143655,-8.668068,0.15084,3.248748,-9.262898
36.599871,0.723224,9.356425,-8.85138,0.18032,3.191136,-9.288487
36.633191,-3.3529,8.927698,-6.439884,0.056266,3.119906,-9.161291
36.666726,-3.357988,8.244129,-8.424449,0.2306,3.2061,-9.287739
36.69988,0.490679,6.957948,-10.055707,0.113878,3.236627,-9.330537
36.733186,2.359869,5.853134,-8.430135,-0.296443,2.779019,-8.710866
36.766489,1.501068,9.366601,-6.341419,-0.455214,3.032215,-9.067914
36.79983,-6.143292,7.197078,4.537174,0.193339,3.285411,-9.372287
36.833152,-2.287592,3.281819,-8.511691,-0.268759,2.939736,-9.229678
36.8665,1.136538,5.249325,-9.618151,0.551883,3.557312,-9.742055
36.899846,1.569156,1.76025,-8.492537,0.436359,3.314891,-9.187029
36.933182,2.302706,3.064688,-9.963377,0.290906,2.725148,-9.238956
36.966486,1.651609,2.515648,-9.598548,0.130339,3.271644,-9.295521
36.999839,1.617491,2.880627,-9.64359,0.288661,2.892748,-9.402665
37.03317,1.544764,2.854589,-9.315722,0.124952,3.531723,-9.232222
37.066514,1.545662,2.702103,-9.198103,0.40224,2.943926,-9.144082
37.09984,1.537132,2.643892,-9.227134,0.253046,2.7241,-9.293575
37.133206,1.525759,2.783359,-9.455339,0.528689,3.176321,-9.356725
37.166518,1.438518,2.575954,-9.414636,-0.523601,2.670229,-9.112507
37.199854,1.560626,2.536448,-9.177752,0.619522,3.132775,-9.421969
37.233202,1.494334,2.950959,-9.303452,0.63718,3.119756,-9.377675
37.266529,1.573945,2.215763,-8.865297,-0.133182,2.566227,-9.057439
37.299838,1.576339,3.012911,-9.52627,0.412566,3.123647,-9.396081
37.333022,1.564218,2.843366,-9.435437,0.491278,2.837679,-9.207979
37.366438,1.422207,2.842468,-9.359119,0.462097,3.145495,-9.356126
37.399841,1.393475,2.863717,-9.352684,0.204861,3.053464,-9.433192
37.433187,1.801701,2.467014,-9.117445,0.485591,3.133972,-9.471201
37.465544,1.590106,2.796228,-9.411643,0.082603,2.972208,-9.208129
37.499811,1.627068,2.623989,-9.191219,0.184061,3.077407,-9.272176
37.533158,1.495532,2.859527,-9.191519,0.228654,2.949462,-9.229528
37.566509,1.37477,2.815233,-9.923871,1.207918,3.297682,-9.146626
37.599854,1.412779,2.496643,-9.122384,0.256338,3.00079,-9.399822
37.633168,1.451836,2.695219,-9.347896,0.340737,3.044785,-9.264096
37.666536,1.392428,2.711231,-9.315124,0.229253,2.786801,-9.185832
37.699771,1.46261,2.760314,-9.373933,0.263372,3.310401,-9.364955
37.733168,1.455427,2.931655,-9.444715,0.248707,3.102398,-9.288637
37.766493,1.451986,2.611269,-9.300608,0.232844,3.012761,-9.261851
37.799798,1.418765,2.675317,-9.367798,0.282825,3.059001,-9.268435
37.833176,1.39991,2.901726,-9.521182,0.326072,3.076809,-9.278761
37.866532,1.371927,2.671426,-9.338019,0.290158,3.074265,-9.282651
37.899837,1.438218,2.79967,-9.399073,0.246013,3.020094,-9.277264
37.933168,1.470242,2.777822,-9.3672,0.264419,3.050471,-9.268435
37.966037,1.438218,2.730834,-9.355078,0.327269,3.05092,-9.298663
37.999835,1.384347,2.788147,-9.394883,0.320984,3.089379,-9.251376
38.033174,1.41218,2.787848,-9.409698,0.288512,3.044785,-9.258708
38.066517,1.427294,2.761511,-9.389945,0.338043,3.03835,-9.30824
38.099839,1.412929,2.765851,-9.368247,0.257536,3.095514,-9.303152
38.133166,1.418017,2.748342,-9.383211,0.260379,2.989417,-9.277713
38.166511,1.415922,2.715421,-9.363159,0.330262,3.07187,-9.29567
38.199854,1.41233,2.745499,-9.386055,0.317692,3.085787,-9.310635
38.232504,1.434328,2.766599,-9.409848,0.224015,3.03431,-9.222046
38.266506,1.386592,2.756124,-9.381565,0.080358,3.007674,-9.580441
38.299942,1.667322,2.66559,-9.441572,0.151439,2.960237,-9.330836
38.333488,1.347535,2.843066,-9.423016,0.302279,3.023386,-9.411643
38.366842,1.316259,2.730086,-9.405209,0.172538,3.102398,-9.033346