time_tick,acc_X_value,acc_Y_value,acc_Z_value,acc_X_value,acc_Y_value,acc_Z_value
0.022412,1.565864,2.734575,-9.398026,0.183013,2.937491,-9.298064
0.055749,1.624524,2.678309,-9.328292,0.191094,2.926866,-9.324701
0.088795,1.565864,2.766898,-9.358371,0.258134,2.95455,-9.367499
0.122416,1.604621,2.768843,-9.40895,0.221771,2.987472,-9.316171
0.155747,1.529052,2.760463,-9.37543,0.181966,2.98822,-9.314974
0.18907,1.561075,2.649428,-9.314974,0.237932,3.008571,-9.340563
0.222485,1.543866,2.795181,-9.413439,0.235089,2.993009,-9.318865
0.25576,1.609859,2.691328,-9.268585,0.222369,3.038201,-9.319613
0.289067,1.535037,2.74535,-9.3461,0.12555,3.029521,-9.328741
0.322412,1.55509,2.678758,-9.331734,0.132434,2.959489,-9.283399
0.355763,1.660737,2.771387,-9.414038,0.151439,2.935695,-9.271278
0.38903,1.521121,2.69896,-9.20783,0.259182,3.047778,-9.36286
0.421648,1.680341,2.720359,-9.76106,0.139467,2.899182,-9.295072
0.455795,1.461563,2.707191,-9.257811,0.28088,3.131428,-9.392489
0.489122,1.563619,2.827055,-9.368247,0.202766,2.973555,-9.258708
0.521568,1.719248,2.784406,-9.449802,0.216234,2.974004,-9.293725
0.555735,1.631407,2.779019,-9.302404,0.216683,3.032215,-9.285794
0.589067,1.515883,2.709734,-9.301357,0.211595,3.004381,-9.31692
0.622412,1.625871,2.665889,-9.337121,0.077665,2.941382,-9.275618
0.655751,1.727927,2.630124,-9.177752,0.118368,3.09701,-9.293725
0.689095,1.573795,2.808948,-9.429451,0.192441,3.082495,-9.314376
0.722457,1.511394,2.686091,-9.301057,0.206507,2.98837,-9.339366
0.755805,1.60956,2.820321,-9.378273,0.245564,2.855187,-9.300459
0.789021,1.593548,2.721107,-9.294174,0.338642,2.927166,-9.364207
0.822459,1.476527,2.736371,-9.388598,0.122857,3.108832,-9.305846
0.855825,1.521869,2.788596,-9.392489,0.103254,3.011415,-9.318117
0.889119,1.582474,2.607678,-9.322756,0.059259,3.039697,-9.233119
0.921664,1.665676,2.567873,-9.14917,0.333255,3.044935,-9.434389
0.955768,1.695904,2.815382,-9.373036,0.091133,3.053165,-9.204987
0.989127,1.557334,2.779019,-9.409997,0.185857,3.223459,-9.3672
1.022416,1.67645,2.768544,-9.409399,0.152636,2.951109,-9.246587
1.055697,1.563918,2.86267,-9.539588,0.306618,3.148787,-9.322307
1.089006,1.572298,2.737418,-9.376328,0.242272,3.011115,-9.336074
1.122411,1.547308,2.879579,-9.319613,0.172239,3.02578,-9.328891
1.155748,1.477874,2.324105,-8.792122,-0.035765,3.141903,-9.245689
1.189074,1.440762,2.811641,-9.456087,0.184809,3.073965,-9.271578
1.222464,2.249582,2.122236,-8.905551,0.250353,3.120804,-9.419575
1.255789,1.296806,2.428106,-9.098441,0.099363,3.043139,-9.259606
1.289122,1.914682,2.898285,-9.627878,-0.019154,3.009469,-9.227882
1.322452,1.72254,2.689982,-9.344603,-0.000898,2.951857,-9.243894
1.355745,1.64697,2.664542,-9.278611,0.262174,2.94647,-9.280556
1.389081,1.635148,2.588524,-9.273673,0.112831,1.804095,-9.577149
1.422398,1.583073,2.841869,-9.443817,0.867031,1.885202,-9.870449
1.455746,1.716255,2.590619,-9.281753,0.03771,-0.122109,-10.80033
1.489113,1.894629,2.878532,-9.4507,1.458869,-2.910705,-11.644167
1.522338,1.622878,2.760164,-9.372587,-1.139082,-1.175296,-9.788295
1.555793,1.671362,2.692526,-9.357772,3.041194,15.510043,-2.383363
1.589114,1.767134,2.75792,-9.410446,0.433216,0.665911,-13.837184
1.622452,1.680041,2.80386,-9.411195,-1.166916,3.884282,-10.936056
1.655788,1.699046,2.767796,-9.567422,0.10879,3.392256,-9.360615
1.688996,1.636346,2.846807,-9.41733,0.000449,3.302021,-9.243894
1.722414,0.994677,2.253323,-9.423765,-0.095622,3.280173,-9.235214
1.755776,-2.617255,2.943776,-10.977956,-0.076468,3.308157,-9.124329
1.78915,-3.623454,1.835371,-10.717428,-0.246761,3.070673,-8.78434
1.822433,0.331609,1.051691,-10.480244,-0.001796,2.940334,-9.642393
1.855732,5.670271,-0.799991,-12.207423,0.514921,3.177219,-9.506068
1.889109,2.577749,-0.861345,-12.106264,0.218778,3.012163,-9.233718
1.92247,1.984714,-1.438368,-10.58649,0.392065,3.097609,-9.275019
1.955778,4.418657,-1.520821,-10.300523,0.357048,3.060498,-9.297316
1.989574,4.992089,-1.552246,-8.736006,0.41915,3.073367,-9.348644
2.022445,4.636387,0.899204,-11.874168,0.379495,2.950211,-9.281604
2.055771,2.570118,1.32,-9.765699,0.388024,2.947667,-9.281304
2.089351,1.539227,1.750972,-8.372822,0.351511,3.005429,-9.294024
2.122365,2.150818,1.811278,-7.6279,0.314699,2.982534,-9.262898
2.155816,3.145195,3.976761,-10.824722,0.440399,2.963828,-9.308091
2.189864,3.662511,4.553635,-10.753641,0.463893,2.974004,-9.314226
2.222441,1.49209,4.145259,-7.451919,0.392813,2.980588,-9.270979
2.255771,0.415858,4.61439,-6.979796,0.365727,2.972956,-9.304798
2.289092,0.739386,5.445208,-8.71311,0.433516,2.978194,-9.267837
2.322442,1.119329,4.76927,-8.390181,0.601415,3.052716,-9.522379
2.355762,1.039121,5.731325,-7.492473,0.153234,3.120055,-9.251226
2.389106,1.351575,6.186239,-7.385628,0.239429,3.151331,-9.368546
2.422438,3.419192,8.818608,1.053786,0.53632,3.203855,-9.722003
2.455799,-2.432745,4.068193,-11.360144,0.136474,3.21882,-10.0168
2.489126,11.752658,21.313196,-23.924615,0.286417,3.391807,-10.357088
2.522164,-1.976185,1.472487,-7.426779,0.352409,2.895741,-10.897448
2.55578,1.805891,3.189639,-9.339665,-0.84653,0.662769,-11.61768
2.589149,1.632305,3.123946,-9.576999,1.278699,4.171746,-13.071611
2.622442,1.628863,3.023835,-9.27906,-1.16916,3.543395,-11.232948
2.65573,1.526358,3.003484,-9.224889,-3.141155,4.081212,-10.851807
2.689105,1.544166,3.083842,-9.428404,-7.356747,3.61283,-16.695963
2.722436,1.557334,2.901577,-9.321558,-4.168155,-2.381567,-10.672086
2.755766,1.569006,2.873145,-9.255416,-0.189598,-1.189362,-10.587687
2.789107,1.506904,2.885715,-9.256314,-1.757407,1.046902,-10.841631
2.822448,1.57993,2.784406,-9.360166,-1.139232,0.88843,-8.952838
2.855769,1.612852,2.935246,-9.25392,2.134806,3.74272,-10.978704
2.889094,1.569904,2.957842,-9.286841,0.192441,4.954977,-11.1692
2.922414,1.664478,2.771986,-9.261402,-1.216896,6.339773,-12.121079
2.95577,1.654901,2.969814,-9.370043,-2.996899,8.421157,-10.94698
2.989106,1.683633,2.979092,-9.340413,-0.538415,16.446807,-11.045445
3.022234,1.658792,2.944075,-9.320062,7.039204,21.388915,2.432745
3.055771,1.74783,2.95051,-9.409249,5.236456,21.109981,16.316019
3.089117,1.716255,2.93779,-9.415983,-10.297979,33.505505,-68.304972
3.122436,1.766984,2.628329,-9.422867,1.596391,1.400359,-11.937168
3.155735,1.976484,2.430501,-9.507565,-0.409573,3.952519,-9.176854
3.188366,1.390183,3.06349,-10.179312,-0.176728,3.371905,-9.288338
3.221691,1.004852,2.650626,-9.255865,-0.061952,3.220616,-9.262599
3.255038,1.522018,3.726858,-10.031315,-0.427979,3.416797,-9.083776
3.288397,-0.208004,0.194685,-12.337462,-0.212643,3.424878,-9.174459
3.321706,-0.299735,3.07202,-14.285365,-0.354953,3.348111,-9.169372
3.355041,3.759031,-0.09622,-9.796974,-0.329065,3.409166,-9.113255
3.388285,3.620761,-0.3144,-8.138182,-0.198127,3.506733,-9.191219
3.421705,3.890717,0.845932,-9.745347,-0.397452,3.369361,-9.086469
3.455006,2.586578,1.477724,-9.818523,-0.331459,3.461391,-9.122833
3.488239,2.017785,1.977831,-9.56802,-0.250652,3.557611,-9.155155
3.521705,0.995724,3.280323,-10.489971,-0.374856,3.379237,-9.140341
3.555754,1.166766,3.534417,-9.738314,-0.256189,3.507631,-9.131213
3.588366,2.361066,3.267603,-9.611267,-0.233293,3.434006,-9.146327
3.621708,4.565906,2.17536,-10.140554,-0.23045,3.423681,-9.142885
3.655073,3.104942,1.453632,-9.075695,-0.202916,3.404826,-9.111909
3.688378,2.219953,2.017037,-9.847104,-0.109688,3.342126,-9.273673
3.721711,0.714395,2.589571,-9.429152,-0.114178,3.397942,-9.187628
3.755041,0.474817,4.055623,-10.434303,-0.076019,3.337636,-9.185982
3.788367,0.71245,3.983795,-9.214414,0.013618,3.400486,-9.214414
3.821711,1.104215,5.047756,-8.829383,-0.066142,3.359634,-9.201994
3.854957,1.727329,4.958419,-8.072788,-0.167899,3.296185,-9.116248
3.889068,2.138697,5.648273,-9.098142,-0.218329,3.237076,-9.180445
3.922415,1.762644,6.556157,-8.907646,-0.010625,3.439842,-9.259307
3.955687,0.332806,3.298131,-3.426674,-0.329813,3.446277,-9.621892
3.989077,1.836867,7.440846,8.891934,-0.51537,3.469472,-10.122747
4.021992,13.154663,7.4811,-49.342218,-0.749412,3.716532,-10.964638
4.055752,-1.652657,-3.557013,-7.315445,-0.538415,3.033412,-11.719886
4.089055,2.436935,3.882486,-10.766511,-0.070033,0.87167,-12.693912
4.122402,1.788383,3.098208,-9.718262,-0.80882,2.940035,-12.635102
4.155764,1.455128,2.707789,-9.184186,-2.190623,4.511735,-9.509211
4.189078,1.258198,2.538992,-9.141837,-8.062912,6.933257,-15.164517
4.222416,1.542968,2.814784,-9.067315,-4.985953,-1.717901,-9.552458
4.255771,1.558082,2.772136,-9.397876,2.117448,-1.723288,-9.360166
4.289081,1.427444,2.639851,-9.281903,0.89696,-0.054919,-10.151478
4.322415,1.633053,2.768694,-9.168174,1.650562,2.423617,-11.599274
4.355737,1.526657,2.664692,-9.300309,1.959724,2.635512,-10.225701
4.389007,1.63021,2.711231,-9.381266,2.383662,3.122001,-10.555664
4.422341,1.627666,2.667834,-9.323653,3.036854,3.845225,-12.511497
4.455658,1.621681,2.705395,-9.364057,0.027235,7.255289,-12.914486
4.489084,1.690367,2.807451,-9.410746,-3.515562,14.326068,-14.498456
4.521865,1.623027,2.762858,-9.327395,3.936507,21.188094,-0.022746
4.555694,1.710269,2.58568,-9.368397,6.868611,29.226165,16.024365
4.589088,1.767433,2.651074,-9.375879,-5.458376,8.463206,-29.738692
4.622405,1.785091,2.667386,-9.431995,4.425241,7.959209,-17.788207
4.655735,2.226238,2.627281,-9.923123,0.362884,5.51943,-9.876135
4.688205,0.60351,3.459296,-10.010515,-0.796998,2.792637,-9.288038
4.722139,2.027363,2.101586,-9.557545,-0.230899,2.773482,-9.297017
4.755706,2.056543,2.258561,-9.924021,-0.165655,3.192932,-9.441422
4.789067,4.165012,0.199474,-11.363137,-0.292402,3.107037,-9.254668
4.822411,4.093782,0.489183,-11.460255,-1.115289,3.100602,-8.992494
4.855908,4.043203,-1.117833,-8.088501,-0.595878,3.35724,-9.248233
4.8891,1.983218,0.730856,-10.18844,-0.759588,3.299777,-9.105175
4.922401,2.164436,1.081619,-10.768007,-0.598422,3.341377,-9.205436
4.955695,0.356001,1.019966,-9.284148,-0.488135,3.33614,-9.254967
4.98908,-0.559066,1.467548,-9.516543,-0.867331,3.203107,-9.034094
5.021605,-0.327718,3.361579,-12.392082,-0.541707,3.340928,-9.225787
5.055735,-0.466437,3.03416,-10.634675,-0.492924,3.4786,-9.305397
5.089031,1.029843,2.53121,-8.768029,-0.910727,2.839026,-8.995187
5.122406,1.784342,3.379536,-9.037237,-0.562957,3.326712,-9.263347
5.155716,3.670891,4.030184,-10.688846,-0.376502,3.335092,-9.333979
5.189069,2.375432,3.029073,-9.996149,-0.748813,2.757321,-9.130614
5.222416,2.001624,3.325366,-10.51945,-0.587797,3.20176,-9.265742
5.255752,0.464791,4.3377,-9.216958,-0.493373,3.183953,-9.266789
5.289067,-0.261426,4.066397,-8.066204,-0.560562,3.057654,-9.130614
5.322438,1.131899,4.085103,-9.151863,-0.938411,3.046132,-9.043671
5.355748,1.012335,3.798537,-8.41996,-0.258882,3.171084,-9.516394
5.389094,1.341998,3.975863,-8.666422,-0.616828,2.769143,-9.213067
5.422418,1.575142,4.212599,-7.502798,-0.57403,3.105091,-9.25392
5.455748,2.501581,4.251805,-8.127108,-0.305571,3.03416,-9.450401
5.488997,2.265295,4.371669,-6.377333,-0.367373,3.049125,-9.378722
5.521415,3.328807,3.949526,-1.16108,-0.33116,3.266257,-9.617253
5.555744,-4.134036,4.841099,-1.925905,-0.59947,3.196673,-9.942726
5.588926,11.032726,15.481161,-30.831535,-1.558681,3.357988,-10.624949
5.622421,-2.867458,2.026465,-10.688846,-1.463059,3.187544,-10.652483
5.65477,1.716854,3.982597,-10.159559,0.534076,2.934648,-10.75005
5.689014,1.703685,3.032514,-9.68115,0.48634,4.217686,-10.968678
5.722415,1.60941,2.938838,-9.278761,-1.023258,4.125506,-11.184164
5.755737,1.476527,2.843815,-9.322007,-1.762644,4.599575,-9.406705
5.78912,1.621681,2.902924,-9.397128,-6.884174,7.248704,-17.95865
5.822426,1.649065,2.878382,-9.533303,-6.057846,-3.249796,-11.740088
5.855791,1.53818,2.801166,-9.352235,1.01847,-2.874192,-11.145556
5.889028,1.579481,2.684146,-9.295521,2.84995,-1.50451,-10.82951
5.922415,1.635148,2.842168,-9.384708,2.738466,0.119116,-9.91205
5.9557,1.675103,2.906515,-9.408351,1.601329,1.734661,-11.4625
5.989065,1.618239,2.746996,-9.311083,0.336697,3.634229,-12.993198
6.022242,1.659989,2.856085,-9.404161,-3.023835,8.616591,-15.103014
6.055755,1.688122,2.833788,-9.377076,-5.279254,17.250689,-17.362772
6.089082,1.648766,2.797575,-9.316471,5.391336,18.170544,-1.076681
6.122455,1.656098,2.826905,-9.361812,10.378936,26.899966,7.650346
6.155695,1.762046,2.900829,-9.414636,11.718988,9.247186,-1.406644
6.189086,1.838364,2.873594,-9.458033,-5.893987,16.97804,-16.417926
6.222401,1.83552,2.623839,-9.422567,3.437747,6.155263,-10.166592
6.255768,1.60118,2.876586,-9.89948,-1.973491,3.546538,-9.270979
6.289083,1.587263,3.450018,-9.560987,-0.570888,2.478087,-9.331136
6.322366,1.949399,2.816729,-9.032748,-0.321732,2.956945,-9.316022
6.355452,1.758454,2.600944,-9.579244,-0.400594,3.151181,-9.364506
6.388622,2.969365,1.884154,-11.304178,-0.322181,3.088481,-9.392788
6.422413,3.42847,-0.004789,-11.872073,-0.459254,3.086685,-9.288188
6.455028,1.719098,-0.519111,-9.946467,-0.147698,3.112274,-9.476888
6.488204,2.281307,-0.015264,-10.021588,-0.324725,2.975051,-9.359119
6.5224,1.777459,-0.121959,-8.544762,-0.485741,3.207746,-9.30824
6.55575,1.96541,0.357796,-9.848601,-0.499957,3.075013,-9.278761
6.589065,2.275471,1.1105,-10.764266,-0.468083,3.059899,-9.243894
6.622406,1.106759,3.284214,-10.646647,-0.491577,2.852943,-9.185683
6.65575,0.383385,3.113621,-9.170868,-0.4609,2.968168,-9.276815
6.689057,1.217046,2.695369,-9.770188,-0.41077,3.000341,-9.317817
6.722372,2.50622,2.511009,-12.071846,-0.526893,2.982085,-9.24135
6.75576,1.733165,2.036042,-10.990227,-0.3982,3.0593,-9.320661
6.789071,1.862755,3.110029,-11.934773,-0.493672,2.871199,-9.265143
6.822428,0.656633,3.298131,-9.369594,-0.558767,3.023985,-9.259606
6.855735,0.495169,3.034609,-8.046002,-0.384433,3.02174,-9.333829
6.88907,1.231861,3.764119,-7.893815,-0.498461,2.582239,-9.153659
6.921577,2.156654,4.943155,-7.828571,-0.613087,2.758518,-9.179398
6.95574,2.013296,5.740154,-8.416368,-0.175382,3.025481,-9.490805
6.989087,0.62042,5.457927,-6.999848,-0.412566,2.682499,-9.185383
7.022345,0.284022,5.775619,-6.780621,-0.533178,2.922078,-9.240751
7.055734,1.116785,7.004038,-5.994547,-0.279832,2.838427,-9.402366
7.089093,0.186455,11.296097,-1.222134,-0.43591,2.85429,-9.479132
7.122329,6.891058,-0.783231,-16.03903,-0.72906,2.865662,-9.870748
7.155736,-2.779618,10.802275,-18.749214,-1.304886,3.245756,-11.201822
7.189089,-0.035765,3.947282,-10.619112,0.235538,3.460194,-11.362988
7.222327,1.230364,3.005878,-9.301057,-1.108256,1.675552,-11.954676
7.255737,1.493437,2.923724,-9.485118,0.084548,5.096689,-12.617893
7.289045,1.639937,2.835883,-9.518489,-1.815019,3.540552,-10.152526
7.322416,1.618388,2.804758,-9.481826,-2.062529,4.399054,-9.094999
7.355664,1.535337,2.706742,-9.253321,-7.136173,1.753067,-13.563188
7.389031,1.548505,2.71587,-9.288637,-2.371841,-1.469793,-8.079971
7.422324,1.481166,2.662597,-9.322905,0.002245,0.820941,-9.750585
7.455755,1.550301,2.659754,-9.351337,-1.157339,0.572534,-8.554489
7.489082,1.568258,2.75343,-9.300608,3.007374,3.530227,-11.853667
7.522371,1.69306,2.792188,-9.341311,2.538543,3.066483,-10.891014
7.555717,1.702637,2.822116,-9.351188,3.172281,3.564046,-10.919895
7.589067,1.779404,2.706891,-9.346698,2.079887,4.736349,-13.255522
7.62266,1.790478,2.811043,-9.403563,-1.876074,9.893344,-15.197289
7.655658,1.735409,2.876137,-9.35852,-7.247058,9.483322,-7.661869
7.68907,1.761447,2.797425,-9.262449,4.323484,19.000764,-0.397152
7.722393,1.791974,2.770639,-9.324102,6.528024,21.932119,3.439393
7.755733,1.783594,2.742806,-9.327843,8.16841,8.779402,-4.70253
7.789083,1.933686,2.773333,-9.526719,4.365683,20.831795,-12.039374
7.822415,1.993244,2.789045,-9.83633,0.452221,3.482042,-7.948135
7.855734,1.875026,3.171832,-9.859076,0.085895,4.103808,-9.411045
7.889086,1.739749,3.497754,-9.234317,0.021998,3.262067,-9.447259
7.92242,0.470477,1.496429,-8.997581,-0.085745,3.271943,-9.367349
7.9557,2.36376,4.796056,-9.756271,-0.157125,3.042989,-9.292079
7.989127,2.629376,4.93702,-9.587175,-0.197678,3.037153,-9.245241
8.022415,0.509534,4.954379,-8.837314,-0.091282,2.953204,-9.361513
8.055735,1.637094,3.759929,-12.139634,-0.37321,3.079502,-9.235514
8.089047,5.312624,0.074223,-15.237393,-0.245564,3.026978,-9.322606
8.122374,3.110029,-1.992645,-9.47584,0.054919,2.938239,-9.333081
8.155737,2.551263,-1.199538,-8.812323,0.009727,2.923125,-9.303003
8.189014,2.157402,0.016012,-10.432807,0.083351,2.993757,-9.310186
8.222401,1.277502,0.983453,-10.553868,0.061653,3.003184,-9.311532
8.255738,-0.289409,1.840608,-9.263946,-0.139318,3.026529,-9.259906
8.289083,2.934498,5.334023,-12.139485,0.002245,2.996001,-9.301057
8.3224,3.287955,5.320854,-8.835817,-0.01242,3.074414,-9.310934
8.355776,1.784642,5.212513,-7.714393,0.013917,3.100752,-9.280107
8.389052,4.931334,6.069668,-10.446424,0.050729,3.019046,-9.307193
8.422146,3.64635,7.052522,-10.601903,0.055218,3.085638,-9.29582
8.455683,-0.319039,6.0351,-6.834792,0.056715,2.982085,-9.265293
8.489078,-0.977318,5.691819,-6.969022,0.094874,2.964576,-9.32515
8.521768,0.417504,5.173456,-7.919105,0.06689,3.051818,-9.347147
8.554884,0.60366,6.069967,-9.248533,-0.011373,3.028773,-9.374233
8.5891,-0.271003,6.232479,-7.803281,0.155778,2.989866,-9.480779
8.622438,-1.312369,6.034801,-3.047329,0.437706,3.065436,-9.650923
8.655748,-1.330625,15.13384,7.636878,0.055667,3.190837,-10.000339
8.689086,26.671461,-0.710056,-41.578293,0.080807,3.334194,-10.465878
8.72242,-4.064751,-0.384133,-14.781431,0.44414,3.701568,-10.540849
8.755746,1.89029,3.602205,-9.297915,-0.06704,2.150818,-11.645962
8.788979,1.430138,2.588524,-9.296867,1.232609,3.983196,-12.846099
8.822401,1.542071,2.663196,-9.425261,-1.454829,3.546388,-11.661824
8.855762,1.642331,2.759865,-9.1993,-4.250608,8.520071,-13.719415
8.889082,1.548356,2.580293,-9.296867,-7.657978,-0.485591,-12.429942
8.922441,1.608811,2.881525,-9.541534,1.044807,-3.544742,-8.013978
8.955789,1.639638,2.578647,-9.239853,4.935075,-1.51708,-7.960257
8.989087,1.707576,2.891251,-9.450551,1.582624,0.681025,-9.856382
9.022414,1.793321,2.840971,-9.521032,1.88999,2.46432,-11.314503
9.055745,1.566163,2.620697,-8.724782,2.058189,3.089678,-10.993968
9.089015,1.654003,2.684445,-9.191968,2.403415,3.33599,-10.703212
9.122404,1.790777,2.809546,-9.345352,1.929496,4.26662,-11.580718
9.155749,1.768331,2.765701,-9.365853,-1.668369,4.892875,-10.36861
9.189078,1.721642,2.727243,-9.348644,-0.036812,14.500701,-12.831134
9.222408,1.772221,2.729188,-9.37109,0.373658,16.664837,-6.969022
9.255791,1.759352,2.623391,-9.18269,4.371669,18.519213,-0.433815
9.289082,1.878917,2.665141,-9.654215,7.403286,20.844365,13.257767
9.322437,1.980375,2.681602,-9.808048,-6.569924,10.368311,-41.242344
9.355746,1.958976,2.613364,-9.390544,2.411047,0.203215,-14.524045
9.388568,1.713412,2.469408,-9.419425,-0.224315,4.546602,-10.082942
9.42189,2.383962,3.114369,-10.064236,-0.585104,3.367565,-9.171018
9.455193,1.752618,3.585894,-9.349392,-0.091881,3.266107,-9.398325
9.488544,0.501902,2.277566,-9.068662,-0.070631,3.286009,-9.349392
9.521894,2.066719,4.438559,-9.921926,-0.181667,3.106438,-9.229528
9.555151,0.639873,-2.052353,-13.315529,-0.015413,3.117063,-9.301057
9.588559,2.787998,-2.934349,-15.08371,-0.158771,3.239022,-9.279509
9.621898,5.605326,-3.504039,-11.93612,-0.261127,3.246055,-9.242846
9.65523,3.252489,-0.594382,-8.375665,-0.023793,3.169737,-9.291031
9.688552,1.470691,1.191158,-9.844561,-0.238531,3.141604,-9.19107
9.721794,1.309525,2.491256,-11.81461,-0.132284,3.256979,-9.229977
9.755224,1.218393,2.377377,-10.291245,-0.019603,3.181409,-9.317518
9.788558,1.489247,2.359121,-9.58493,-0.039955,3.192034,-9.292528
9.821895,1.093591,3.778335,-10.723862,-0.185108,3.274337,-9.236711
9.855224,0.272201,4.868633,-10.662659,-0.035316,3.186048,-9.257062
9.8886,1.323592,4.025395,-8.422504,-0.106546,3.106887,-9.210074
9.922423,0.911774,5.408395,-9.702998,-0.007183,3.13068,-9.307043
9.955222,0.513874,6.132967,-9.938087,-0.08784,3.024134,-9.331136
9.988515,1.737205,5.782802,-8.504658,0.040853,3.074265,-9.303302
10.021902,1.677797,5.937084,-6.262557,-0.04175,2.996151,-9.26634
10.055218,1.944311,5.880669,-6.669436,0.101458,3.048825,-9.315722
10.089038,0.983005,5.776218,-7.364229,0.039955,3.06798,-9.309587
10.121403,0.613985,5.254413,-7.648999,0.131686,3.011415,-9.35044
10.155732,1.139531,4.2747,-7.042047,0.199175,3.151331,-9.452496
10.189038,2.067766,0.688806,-5.021419,0.220574,3.129633,-9.605132
10.222376,-0.870323,6.915001,1.217645,0.182115,2.990165,-10.116611
10.255605,6.109173,31.373841,-24.364715,0.01676,3.101051,-10.690193
10.289035,1.77297,4.654345,-9.917137,0.534824,3.545041,-10.40647
10.322374,1.467848,2.550814,-9.600343,-0.308264,2.305549,-10.96778
10.35512,1.2781,2.362114,-9.360765,1.185471,1.614797,-10.866921
10.389261,1.653106,2.676065,-9.616954,-0.885737,4.088994,-10.632281
10.422405,1.528603,2.71572,-9.79862,-1.075783,3.987236,-8.178286
10.45575,1.596541,2.5776,-9.358221,-2.694471,10.600557,-16.765248
10.489074,1.681239,2.657808,-9.452197,-4.074029,-1.04361,-10.848814
10.522387,1.585766,2.616657,-9.406256,-0.23883,-0.902946,-9.431995
10.555754,1.573047,2.537196,-9.380368,1.816366,-1.21525,-8.700391
10.589195,1.762345,2.662148,-9.431546,0.700628,1.643528,-10.462436
10.622406,1.665077,2.64868,-9.4091,1.830732,2.607229,-11.250157
10.655749,1.722241,2.578647,-9.365853,1.885651,2.79144,-10.623153
10.689059,1.773269,2.666488,-9.390693,0.498461,4.536426,-12.17495
10.722418,1.68917,2.567274,-9.34191,-1.297853,6.217515,-12.961174
10.755756,1.71416,2.498139,-9.301955,-1.311321,7.304072,-10.526483
10.789067,1.790179,2.526871,-9.392639,-0.030078,17.178412,-9.246737
10.8224,1.796464,2.627431,-9.382463,-0.074223,19.107609,-2.60274
10.855739,1.780152,2.478237,-9.290582,7.334599,27.40531,16.546769
10.889068,1.851083,2.599448,-9.462672,2.88751,0.1257,-49.996307
10.922426,1.76848,2.533006,-9.902023,0.671598,2.206934,-6.203299
10.955121,1.907648,3.045084,-9.952902,-0.135128,2.566526,-9.275768
10.989071,1.842703,3.245756,-9.340413,-0.472572,3.371905,-9.265143
11.022461,-0.383385,0.721578,-8.215098,-0.186305,3.236029,-9.377675
11.055735,1.526657,4.680382,-9.264096,-0.202317,3.165846,-9.320212
11.089083,2.262452,4.53882,-8.915128,-0.380243,3.101949,-9.219352
11.122414,0.022147,-1.037923,-13.315379,-0.63299,3.160459,-9.074797
11.155365,5.51554,-1.216448,-17.532168,-0.367972,3.197421,-9.206782
11.189068,5.489951,-3.384175,-6.753536,-0.246612,3.142502,-9.363907
11.2217,5.229572,-0.939309,-7.746566,-0.160717,3.23977,-9.252723
11.255736,4.264076,-0.881397,-8.253257,-0.083501,3.202958,-9.334428
11.289087,3.722967,2.110115,-11.269012,-0.13827,3.158813,-9.273373
11.3224,2.213369,1.413827,-9.89514,-0.031575,3.201461,-9.275917
11.355734,1.815768,2.466116,-11.248211,-0.25993,3.134272,-9.248832
11.389084,1.482213,3.76786,-11.113682,-0.155629,3.133823,-9.242846
11.422447,1.798858,2.623091,-11.56321,-0.244217,3.161207,-9.191369
11.455749,1.641733,3.026678,-10.660414,-0.000599,3.065885,-9.268286
11.489036,1.522318,4.023151,-9.24135,-0.074821,3.015455,-9.282053
11.522376,-0.237783,3.252938,-6.229786,-0.127496,2.990914,-9.310485
11.555752,0.812412,5.366795,-9.979538,-0.017957,2.949313,-9.356874
11.589074,1.128457,5.663986,-8.973639,0.019454,2.956047,-9.329789
11.622391,0.195284,5.312624,-6.65941,0.005537,3.005878,-9.31677
11.655731,1.344542,5.305291,-6.782567,0.046689,2.984629,-9.403114
11.689068,1.175595,5.378616,-8.166614,0.161914,3.048376,-9.469406
11.72242,0.96415,5.078433,-6.507523,0.156826,3.057205,-9.507864
11.755825,1.237697,7.797146,-3.057654,0.583308,3.091923,-9.712575
11.78909,-1.024605,16.247184,6.154515,0.444589,3.403479,-10.10479
11.822344,6.08972,27.413989,-31.557453,-0.266963,3.421137,-10.041341
11.855738,0.400295,3.609388,-9.669927,0.204412,3.714587,-10.063339
11.888738,1.791675,2.769741,-9.398026,0.774702,2.523279,-9.739511
11.921763,1.884454,2.738316,-9.650474,1.509299,4.795907,-9.795627
11.955737,1.870387,2.851895,-9.678008,0.880798,5.149513,-10.108231
11.989084,1.787485,2.59002,-9.2831,-0.209051,4.437811,-10.893558
12.022297,2.06193,2.660801,-9.515795,0.320236,8.594892,-10.060196
12.05576,1.888494,2.416734,-9.209177,-0.866433,12.668024,-20.840175
12.08903,1.911689,2.619949,-9.272027,-3.865726,-3.363525,-8.299198
12.122355,1.975287,2.751335,-9.418377,0.42768,-0.173735,-10.667148
12.155749,1.964812,2.726494,-9.233868,-0.487537,-0.234341,-9.146027
12.189088,1.926054,2.688336,-9.252423,1.58023,1.229466,-9.390843
12.222403,1.987258,2.745798,-9.324851,2.094852,2.43514,-11.222024
12.255747,2.081833,2.682948,-9.275169,1.807388,3.511821,-12.310227
12.289086,2.046218,2.719012,-9.263647,-0.092928,4.645815,-13.532661
12.322386,1.997883,2.651823,-9.222944,-5.056435,12.026055,-15.545059
12.355748,2.039484,2.565928,-9.224889,0.382487,20.317322,-6.487471
12.38908,2.101436,2.66544,-9.296269,3.691243,25.505443,3.136965
12.422398,2.118046,2.720958,-9.314226,10.9386,19.719349,-5.26414
12.45579,2.192868,2.685343,-9.462522,2.406708,0.430822,-7.856255
12.489085,2.110714,2.500983,-9.405209,0.322481,4.837508,-9.903221
12.52241,2.57311,3.208644,-10.117659,-0.253046,3.814848,-9.328442
12.555668,2.285646,3.638269,-9.666934,0.271752,3.571528,-9.550811
12.589086,0.669054,3.609238,-8.064109,-0.149194,3.165996,-9.410147
12.622399,0.955919,2.630573,-9.370342,-0.350464,3.146842,-9.271727
12.655665,0.029929,-0.02499,-12.110903,-0.270704,3.02189,-9.235663
12.689066,0.837552,0.541408,-11.824935,-0.258733,3.066483,-9.218305
12.722389,6.611076,-0.077216,-14.054316,-0.199175,3.199217,-9.290582
12.755663,4.939265,-3.573324,-9.036638,-0.280581,3.068878,-9.234017
12.789064,1.072491,-0.759887,-9.399373,-0.231348,3.223159,-9.285345
12.822403,-0.392214,0.461349,-9.879727,-0.352708,3.252639,-9.216808
12.855667,0.357946,2.584334,-12.093095,-0.254393,3.123946,-9.301357
12.889081,0.946791,1.990102,-10.118856,-0.183612,3.129633,-9.235214
12.922409,1.551947,1.629462,-10.464382,-0.331908,3.182905,-9.200348
12.955789,3.385223,2.015391,-12.068704,-0.163709,3.212235,-9.29986
12.989106,4.950937,1.320599,-10.635124,-0.262324,3.067531,-9.295969
13.022408,2.129868,1.611056,-8.324039,-0.325623,3.149685,-9.120738
13.055176,0.887532,2.759566,-7.777692,-0.200073,3.145046,-9.240751
13.088189,2.544229,5.634955,-12.392082,-0.145154,3.055859,-9.309886
13.122313,1.451537,5.174952,-8.50795,0.040703,3.12245,-9.314226
13.156067,0.371863,5.079331,-7.325172,0.082902,3.266556,-9.243594
13.189071,1.080721,5.527661,-7.897107,0.147398,3.193979,-9.305696
13.222419,1.000213,6.382571,-8.049144,0.070332,3.219269,-9.319613
13.255736,0.533477,5.104022,-6.515604,0.1468,3.173478,-9.302404
13.289068,0.986297,3.262815,-3.021441,0.114926,3.174825,-9.47584
13.322412,3.689746,9.634312,0.749562,0.047437,3.298579,-9.798321
13.355701,-1.219141,3.770104,-9.08617,0.004639,3.312496,-10.109728
13.389072,0.292103,15.067249,-10.93007,-0.321583,3.47441,-10.280919
13.422417,0.682372,2.641797,-10.524688,-0.209201,3.303069,-10.344667
13.455736,1.337209,2.723651,-9.014341,-0.357796,-0.428877,-9.806102
13.489064,1.601329,3.060647,-9.957242,-0.025739,7.024539,-11.577426
13.522416,1.505707,2.440676,-9.352235,-0.334452,3.983944,-10.475605
13.555735,1.640236,2.453396,-9.290732,-0.041451,6.036896,-8.979624
13.588315,1.66373,2.648381,-9.295072,-6.978898,11.398453,-15.582619
13.622377,1.648167,2.747594,-9.486615,-9.237758,-0.760934,-9.635958
13.655395,1.590555,2.649428,-9.400121,1.327034,-0.183911,-8.954634
13.689085,1.673906,2.644041,-9.423166,-0.046539,0.369468,-9.307043
13.7224,1.800803,2.760912,-9.514747,-1.083864,2.685642,-10.734487
13.755754,1.717003,2.668283,-9.459829,0.382038,2.211423,-9.674117
13.789081,1.678395,2.617854,-9.311981,2.541985,2.987023,-11.069238
13.82239,1.734661,2.604685,-9.350739,1.276305,3.695732,-12.143974
13.855743,1.710419,2.60259,-9.319463,-1.786288,7.766469,-15.470686
13.889068,1.77686,2.559792,-9.347447,-2.065671,9.376328,-12.28823
13.922414,1.830881,2.630274,-9.378722,1.195198,19.390434,-7.109536
13.955731,1.761896,2.634464,-9.368846,3.21463,23.488107,2.377527
13.98904,1.798559,2.542583,-9.345801,9.419275,25.906337,21.144848
14.022421,1.830433,2.423767,-9.307342,3.900892,14.324421,-2.699708
14.055739,2.012548,2.459681,-9.461325,-0.501454,3.76352,-8.19789
14.089076,2.016738,2.840373,-9.927762,-0.048185,2.846508,-9.38815
14.122405,1.107507,3.315788,-9.297466,-0.398948,3.397942,-9.309138
14.155783,2.201996,3.114818,-9.314675,-0.469729,3.188442,-9.240302
14.18908,1.346487,2.722304,-9.239255,-0.208752,3.050322,-9.403413
14.222414,2.293577,2.565628,-10.33509,-0.304972,2.929111,-9.35433
14.255698,2.782461,-3.831308,-12.850738,-0.477511,3.158963,-9.254219
14.289095,5.041621,-0.703621,-13.653422,-0.254692,3.121851,-9.365853
14.322376,3.749603,-1.28678,-9.017035,-0.478409,3.075611,-9.246288
14.355757,1.369083,0.015264,-9.331285,-0.586451,3.162255,-9.242397
14.389029,1.241139,0.929732,-10.09611,-0.526743,3.110628,-9.243894
14.422419,2.003569,1.679293,-11.609898,-0.500705,3.194428,-9.237758
14.45575,1.28259,2.191371,-10.135616,-0.572085,3.089678,-9.229079
14.489078,1.096584,2.850848,-9.928361,-0.464192,3.143699,-9.252124
14.522404,0.476762,1.585916,-10.168986,-0.514323,3.204903,-9.229079
14.555747,0.622066,2.421223,-11.277841,-0.529586,3.062742,-9.195709
14.589065,1.273013,3.196224,-10.001536,-0.467784,3.01336,-9.280856
14.622403,2.258711,3.527384,-9.085572,-0.509235,3.050172,-9.248533
14.655749,2.740561,3.884432,-8.642479,-0.415708,3.05107,-9.289535
14.689071,2.25916,5.475286,-8.980821,-0.219975,3.154623,-9.369444
14.721386,1.918572,5.631363,-7.462694,-0.367523,3.056308,-9.257811
14.755735,1.463658,5.386548,-7.115522,-0.260379,3.060348,-9.304499
14.789064,1.566462,7.083349,-8.734659,-0.321433,3.139359,-9.359268
14.822419,1.059472,4.954528,-6.213923,-0.151289,3.116165,-9.433491
14.855735,1.941767,5.722346,-2.145132,-0.12166,3.19772,-9.60992
14.889054,-0.386228,15.795412,10.483536,-0.223267,3.281969,-10.079799
14.922429,5.385201,35.547981,-38.851649,-0.874214,3.240817,-10.274485
14.955771,1.888494,3.826221,-9.652569,-0.344927,3.590084,-10.539053
14.989069,1.6555,2.804159,-9.63117,-0.213391,2.415387,-10.540999
15.022415,1.676001,2.657958,-9.644338,2.127623,4.196886,-10.6034
15.055717,1.553892,2.567574,-9.390693,1.678096,5.106715,-10.369059
15.089068,1.630659,2.691328,-9.274571,-1.655799,4.432424,-9.538541
15.122417,1.731818,2.668283,-9.265742,-1.251464,8.402302,-8.604619
15.155745,1.744986,2.716169,-9.385755,-4.71091,10.358285,-17.817836
15.189067,1.77282,2.826456,-9.46761,-7.704966,2.77468,-11.63444
15.222459,1.713412,2.667535,-9.394883,-0.957416,-0.297939,-7.608147
15.25575,1.762195,2.714074,-9.42152,1.616443,1.238744,-8.782395
15.289032,1.796763,2.721556,-9.361812,0.619073,2.10802,-9.231623
15.322323,1.792573,2.687587,-9.32934,1.826691,2.57745,-10.329553
15.355747,1.804095,2.69896,-9.353582,1.52561,4.211252,-11.716444
15.389085,1.809931,2.609623,-9.30839,-4.541963,9.87419,-18.512179
15.422419,1.801551,2.644341,-9.30435,-1.466501,9.695815,-10.559405
15.455734,1.849288,2.701654,-9.35014,-2.744302,27.634264,7.315894
15.489016,1.885052,2.64449,-9.391741,1.051391,25.685164,2.875838
15.522437,1.86934,2.672324,-9.381116,10.133671,7.595427,-14.405977
15.555328,2.026315,2.662896,-9.528515,0.31425,-6.038542,-3.480096
15.589037,1.866496,2.399076,-9.440375,-0.777694,3.54998,-7.576123
15.622389,1.753815,2.997049,-9.687435,0.076168,3.099704,-10.541298
15.655769,1.334965,3.286309,-9.384558,0.340288,3.784769,-9.776623
15.689115,1.256402,2.957094,-9.150816,0.600667,4.410127,-9.513999
15.722385,1.339604,3.513916,-9.394285,0.124054,2.978344,-9.288787
15.755775,1.987857,3.638269,-10.149982,0.374556,3.080101,-9.417031
15.789113,0.492475,-0.679229,-12.171209,0.356599,3.069925,-9.321558
15.822754,0.785775,-0.056715,-12.532447,0.165954,3.050771,-9.230725
15.855784,3.676129,-0.571935,-10.440289,0.200222,3.033562,-9.211721
15.889067,1.97394,-1.031938,-8.659837,0.531232,3.099554,-9.413439
15.922366,-0.070183,-0.54485,-8.658939,0.324426,3.025331,-9.263198
15.95578,0.599619,1.34948,-12.380859,0.300333,3.087882,-9.209177
15.989105,1.700243,1.79392,-12.2589,0.346573,3.023386,-9.351188
16.022427,1.664478,1.518427,-9.17012,0.358245,3.035208,-9.352535
16.05577,3.064688,1.652956,-9.343556,0.341186,2.962631,-9.389796
16.089097,3.332997,1.962717,-9.045766,0.365877,3.041194,-9.3042
16.122408,3.174675,2.977296,-9.151564,0.305721,2.978643,-9.264993
16.15577,2.04951,4.254648,-11.277841,0.36887,2.96742,-9.388898
16.189101,1.967057,3.595321,-11.431075,0.527491,3.044336,-9.361064
16.222436,0.449827,2.662298,-7.291802,0.36453,2.915194,-9.28729
16.25577,0.315447,4.037516,-6.45006,0.659476,3.013959,-9.389945
16.28914,1.27825,6.629183,-9.402066,0.67489,2.998096,-9.351786
16.322403,2.285497,9.116398,-11.866237,0.710654,2.980887,-9.374981
16.35575,-0.344179,6.321666,-4.060561,0.832164,2.997498,-9.436933
16.388999,0.054021,8.044655,-6.613769,0.784877,2.996899,-9.464916
16.422402,2.660801,8.156887,-4.342489,1.258348,3.002436,-9.671274
16.454818,0.239878,12.960725,10.512417,0.940805,3.312197,-10.154022
16.489068,15.569151,23.082125,-28.930172,0.533926,3.189041,-10.073215
16.521399,0.481551,3.728204,-9.591514,0.831416,3.279724,-10.880688
16.555736,1.678246,2.909657,-9.857579,-0.533477,1.312967,-10.904033
16.589086,1.631856,3.023835,-10.04179,1.467548,4.331565,-11.663022
16.622415,1.649514,2.781862,-9.56398,-0.440998,4.36269,-10.415897
16.655751,1.589208,2.713176,-9.264395,0.59109,3.190388,-8.186966
16.688995,1.617042,2.648231,-9.340264,-5.170613,7.037708,-16.00581
16.722392,1.643528,2.601393,-9.403413,-1.28648,-0.428877,-10.398389
16.755748,1.665526,2.653618,-9.410446,0.534974,0.123455,-9.560389
16.789064,1.730172,2.701205,-9.378872,-0.263072,0.064646,-8.378509
16.822416,1.735559,2.659454,-9.384259,-0.2306,2.746247,-11.030182
16.855755,1.706528,2.618003,-9.330387,1.737055,2.100388,-9.749088
16.889083,1.67645,2.639103,-9.340264,2.884069,2.871349,-10.434603
16.922378,1.765487,2.584184,-9.344304,0.69554,4.958269,-12.980927
16.955733,1.796613,2.546324,-9.267837,-2.587327,7.131983,-12.72803
16.989081,1.804245,2.59406,-9.361214,-2.846807,8.276003,-8.420858
17.022241,1.804095,2.617105,-9.368397,4.499913,22.349324,-2.018983
17.055732,1.914532,2.677861,-9.483921,8.155092,28.917751,3.493564
17.089082,1.799307,2.555453,-9.302554,4.66033,14.637624,-9.598548
17.1224,1.960772,2.509363,-9.328891,0.601265,-2.524177,-7.895461
17.155734,2.15022,2.552011,-9.689979,0.316794,3.391957,-9.056391
17.189109,1.579631,3.049424,-10.0376,0.31844,3.382529,-9.521631
17.222412,1.650562,3.384624,-9.540785,0.204861,3.376693,-9.242697
17.255747,1.591902,2.650775,-9.126274,0.128843,3.282568,-9.241051
17.288991,0.727414,4.461754,-9.286692,-0.006884,3.274487,-9.103678
17.322417,2.243896,4.135233,-9.728587,0.068387,3.202359,-9.235214
17.355733,1.762345,1.811727,-10.939498,-0.16745,3.257577,-9.172364
17.389047,6.728545,0.746718,-14.35839,-0.094275,3.198618,-9.250328
17.422398,4.13643,-1.596241,-8.945206,-0.060306,3.295138,-9.1785
17.455733,1.922762,-0.127197,-9.248233,-0.020202,3.278228,-9.253321
17.489088,2.899631,1.369383,-10.861684,0.029929,3.247402,-9.245241
17.522417,2.008358,1.384497,-9.949909,-0.022297,3.204454,-9.175956
17.555655,1.248321,1.13175,-8.943261,-0.004639,3.250394,-9.200048
17.588716,1.758903,2.717366,-11.07702,0.076617,3.204604,-9.335625
17.622412,-0.270704,2.030056,-9.110861,-0.051926,3.14744,-9.169222
17.655748,-0.50699,2.376929,-9.42167,-0.003741,3.2272,-9.183139
17.68908,2.49769,3.598464,-11.545851,-0.03352,3.135918,-9.278012
17.722413,1.532793,3.024134,-8.002157,-0.078413,3.079203,-9.258259
17.755736,-0.149044,3.785667,-9.572659,0.040254,3.191285,-9.191818
17.789081,1.209265,4.598677,-8.917971,0.085296,3.174675,-9.30839
17.822389,0.654688,5.092948,-8.582023,0.022895,3.159112,-9.221298
17.855733,1.868891,6.526228,-9.946467,0.011223,3.146093,-9.174459
17.889081,2.548719,5.912094,-8.357259,-0.00015,3.017849,-9.244941
17.922397,1.999379,6.535955,-7.038007,0.120163,3.071721,-9.295521
17.955639,2.421373,7.706761,-5.824552,0.074223,3.047628,-9.345651
17.989089,1.707276,12.917628,5.014685,0.083501,3.103445,-9.595854
18.022422,8.972591,-4.491234,-29.430578,0.288362,3.279126,-10.488175
18.055734,-2.018384,-3.356192,-7.801785,-0.089187,3.135319,-10.508227
18.089129,0.950831,2.02841,-8.871881,0.034867,3.057954,-11.128946
18.122421,1.406045,2.954251,-9.631469,-0.113579,0.365129,-10.616718
18.155735,1.641733,2.585531,-9.149918,0.759438,4.932531,-11.703425
18.189039,1.674804,2.518341,-9.269183,-0.525546,4.113535,-9.916988
18.222401,1.699046,2.520436,-8.819207,-1.02685,5.356469,-10.419638
18.255734,1.738851,2.6822,-9.339067,-7.947238,2.948265,-14.69823
18.289042,1.766685,2.585082,-9.39623,-2.688635,-1.513189,-10.290796
18.32242,1.911988,2.681602,-9.45908,-0.286566,0.198127,-9.891249
18.355676,1.895228,2.63611,-9.356126,-0.426183,0.615182,-9.238806
18.389114,1.897473,2.696117,-9.372138,-0.187952,1.970199,-9.79024
18.422418,1.931591,2.649279,-9.375729,3.108683,2.993458,-11.283377
18.455733,1.907948,2.701354,-9.37962,1.619137,3.362627,-11.212147
18.488397,1.89029,2.699409,-9.330238,1.444204,4.289814,-12.873932
18.522447,1.91947,2.693723,-9.336972,-1.868891,6.790049,-13.129223
18.555735,1.895826,2.621744,-9.31692,-2.91684,16.944221,-8.92261
18.58943,1.912736,2.543032,-9.319613,0.969088,23.573403,-2.511757
18.622345,1.959724,2.596604,-9.33353,9.198402,27.029257,11.322584
18.655736,2.038736,2.670079,-9.425411,-3.212684,5.648722,-33.537828
18.689182,2.122236,2.792487,-9.757319,3.271195,3.986937,-16.597199
18.722314,2.134357,2.864166,-9.797124,-0.041451,4.03617,-10.151029
18.755747,1.80649,2.837679,-9.648977,-0.296892,2.840522,-9.235065
18.789065,1.419962,3.420688,-9.167426,-0.305421,3.025331,-9.228331
18.822166,0.788469,2.882422,-8.737502,-0.307067,3.465581,-9.354181
18.855641,1.581576,4.654345,-9.083925,-0.186305,3.199815,-9.356425
18.888769,1.965111,4.900507,-9.137797,-0.298089,3.110628,-9.266639
18.922358,0.807922,2.495895,-10.241863,-0.2725,2.962781,-9.252423
18.955748,1.928598,-2.052952,-13.295177,-0.049382,3.13891,-9.393537
18.989096,4.394864,-0.605306,-14.221617,-0.148745,3.10554,-9.279808
19.022413,3.530676,-1.44181,-8.772818,-0.090833,3.050172,-9.319613
19.055782,2.801466,0.162363,-9.164433,-0.342533,2.89604,-9.19092
19.089095,1.541771,0.768716,-9.034244,0.057014,3.177069,-9.370791
19.122405,1.347834,2.235067,-11.026141,0.07527,3.064388,-9.332333
19.155773,0.510731,2.378575,-10.213879,-0.081555,3.056158,-9.251974
19.18908,0.800141,2.355829,-9.681599,-0.040553,2.941382,-9.33772
19.222222,0.932575,2.534503,-10.393152,-0.063149,2.965624,-9.256015
19.255734,1.495083,2.251677,-9.214115,0.049681,3.000191,-9.307941
19.28909,2.184637,2.822116,-9.993904,0.128394,3.09312,-9.36705
19.322424,1.540574,2.71168,-8.355763,-0.034717,2.949612,-9.273224
19.355733,2.253922,5.114197,-11.563509,0.120612,2.938838,-9.326646
19.389086,2.138697,4.397258,-9.807449,0.037261,2.904869,-9.263497
19.422396,1.891786,5.293619,-9.028258,0.158173,2.970113,-9.347147
19.455747,1.894031,5.072447,-7.250051,0.369768,2.922826,-9.380218
19.48908,2.515049,6.854994,-9.594806,0.019304,2.887361,-9.309288
19.522406,1.003655,5.330731,-4.981165,-0.087092,2.937192,-9.323205
19.555737,1.004403,6.939243,-6.282909,0.073325,3.185449,-9.519087
19.589128,0.349267,6.545083,1.02266,-0.014665,3.044186,-9.599595
19.622417,-2.929859,-8.326882,-7.973575,-0.414361,3.067531,-10.550726
19.655752,11.379598,28.334293,-27.003968,-0.162063,3.26072,-10.921092
19.689048,-0.090384,3.304116,-8.551047,-0.535871,2.765551,-11.659281
19.722103,1.361751,2.990465,-9.310934,0.524798,-0.648253,-11.671851
19.755748,1.854375,2.9128,-9.676661,1.431185,4.8827,-11.779743
19.789028,1.822501,2.608875,-9.279209,-2.008059,4.118024,-9.240602
19.822398,1.854675,2.737418,-9.369594,-2.003569,7.306616,-15.944755
19.85573,1.749176,2.729787,-9.415534,-6.210631,0.664564,-14.187049
19.889081,1.920667,2.748492,-9.301357,-2.122984,-2.499636,-8.938921
19.922414,1.90705,2.754328,-9.352535,-0.032024,-0.382188,-7.720678
19.954863,1.951045,2.693274,-9.342209,0.367373,1.264633,-8.97304
19.989071,1.962268,2.7452,-9.277863,0.254543,3.776389,-12.593501
20.022413,1.959574,2.667984,-9.260354,0.553529,2.987771,-11.421348
20.055746,2.032301,2.798473,-9.302404,1.162875,3.397493,-12.578388
20.089066,2.038287,2.802064,-9.361363,6.286949,7.982553,-17.423677
20.1224,2.033049,2.690879,-9.258858,1.186669,14.261871,-0.300333
20.155746,1.98651,2.705096,-9.287589,2.665291,24.540545,1.884005
20.189066,2.01988,2.771687,-9.309138,9.744898,43.329265,-11.192843
20.222376,2.080037,2.768245,-9.443667,-0.918359,-4.412821,-9.448905
20.255749,2.125528,2.813287,-9.565925,-0.151888,3.087284,-12.605772
20.289068,2.109966,3.054661,-9.700754,0.095173,4.341591,-9.695217
20.322409,1.530099,3.228247,-9.408351,-0.175082,4.102461,-9.271129
20.355746,1.60956,3.493564,-9.247336,0.159968,3.145046,-9.27906
20.389056,1.3619,3.158663,-9.040978,0.072278,2.972208,-9.373485
20.422335,1.450339,3.499101,-9.327245,-0.023644,3.076809,-9.261701
20.455734,2.283402,5.668774,-9.014491,0.120313,3.020543,-9.376178
20.489119,1.353221,3.945037,-9.364356,0.10909,3.030719,-9.277863
20.522403,1.750972,0.14665,-11.749964,0.094724,3.000491,-9.289684
20.555751,4.088994,-1.537282,-14.176873,0.1049,3.010218,-9.255865
20.589044,1.401855,-1.762794,-10.461838,0.09637,3.023835,-9.306295
20.6224,0.301082,0.016012,-10.18021,0.115225,3.061096,-9.293575
20.655785,-0.010325,0.801338,-9.644338,0.264419,3.024583,-9.384708
20.689072,2.244046,2.106973,-11.109492,0.181816,2.91714,-9.339965
20.722412,3.732394,2.113856,-10.906876,0.136025,2.923275,-9.342359
20.755739,3.149685,2.060434,-10.002135,0.061653,2.826157,-9.234616
20.789099,2.307045,1.800654,-9.056541,0.17583,2.804758,-9.378722
20.822414,1.948052,2.337722,-9.021973,0.218778,3.015006,-9.384558
20.855581,1.200436,3.981849,-10.602053,0.140365,2.834686,-9.35852
20.888755,2.716319,4.347726,-10.186195,0.358395,2.850548,-9.412691
20.922425,2.370195,4.580271,-9.035291,0.206507,2.849202,-9.316321
20.955679,1.7812,4.719589,-8.110348,0.095921,2.805207,-9.237309
20.989087,1.780601,5.325344,-8.527403,0.189897,2.901277,-9.322157
21.022402,0.91372,5.443861,-7.787419,0.427979,2.901726,-9.42137
21.055792,0.606054,6.066974,-7.362283,0.018406,2.884817,-9.369743
21.089084,1.744986,7.928083,-5.993649,0.238232,2.884966,-9.548118
21.122418,1.800803,11.10201,1.814121,0.482299,3.022039,-9.789342
21.155682,-0.05462,1.04346,-9.944223,0.108641,3.210739,-10.240216
21.189071,-4.203171,-2.015541,-12.544269,-0.210697,3.252938,-10.384772
21.222387,1.848839,2.407156,-10.466626,0.525396,3.23124,-10.588286
21.255497,1.672859,2.523728,-9.145578,1.053786,0.591389,-10.789107
21.289014,1.666573,2.664243,-9.514149,0.556821,5.320854,-11.914122
21.322429,1.919919,2.82047,-9.625334,-0.533926,2.875988,-11.614537
21.356025,1.894031,2.846209,-9.453843,-0.670251,4.337251,-8.929195
21.388597,1.773269,2.609623,-9.305696,-3.795843,4.939115,-17.860335
21.421555,1.707127,2.567274,-9.24135,-4.936122,-3.301423,-11.339494
21.45569,1.836418,2.667086,-9.29986,-1.770875,-0.557869,-11.397705
21.489025,1.910641,2.570417,-9.456087,-0.698384,-1.139082,-7.672344
21.522409,1.880114,2.728889,-9.345052,0.522703,0.277588,-9.292677
21.555732,1.993244,2.770041,-9.391442,2.104728,2.489161,-12.245582
21.589029,1.874577,2.652421,-9.250628,3.242164,2.847406,-12.331327
21.622417,1.878618,2.732929,-9.307642,-0.293151,4.261681,-12.55624
21.655722,1.930843,2.779019,-9.322157,-0.976121,7.400143,-16.121783
21.689098,1.926503,2.648381,-9.262749,2.032002,24.510018,2.448009
21.722414,2.054897,2.693274,-9.277713,4.321389,29.32044,2.279511
21.755741,1.921116,2.781114,-9.391891,10.274185,33.225672,7.153531
21.789067,2.045469,2.6822,-9.601989,1.110201,-4.283679,-13.489264
21.822489,2.056543,3.029521,-9.934496,2.046816,5.058381,-10.463184
21.855754,1.712364,3.409615,-9.615607,-0.137223,3.381182,-9.592711
21.888464,0.872867,3.081597,-8.844048,0.379794,3.43266,-9.422567
21.922345,0.390718,2.749689,-8.613747,0.357796,3.219418,-9.430648
21.955733,2.250181,4.899609,-9.267537,0.014066,3.073816,-9.231773
21.989084,0.61204,1.767732,-11.211699,-0.064646,3.291995,-9.215312
22.0224,1.745435,-0.85506,-12.32175,0.00404,3.154174,-9.261103
22.055112,6.815638,-1.174248,-10.404674,0.104451,3.171982,-9.260354
22.089072,4.126105,-1.707127,-7.96729,-0.096071,3.177967,-9.160692
22.122423,2.636409,0.156078,-9.924171,0.10894,3.160459,-9.298513
22.155747,0.105648,1.99474,-9.633714,0.015114,3.259972,-9.222495
22.189088,0.74582,4.545405,-10.785515,0.074373,3.226452,-9.249281
22.222399,0.200372,3.547885,-9.214713,0.006285,3.134122,-9.266191
22.255734,2.787399,3.787014,-10.237224,-0.029779,3.189789,-9.238357
22.289082,4.404291,4.448286,-10.103144,0.005686,3.203107,-9.205884
22.322402,1.478173,2.683547,-8.014427,0.023793,3.128735,-9.21202
22.355797,2.321411,3.682114,-10.948776,-0.15084,2.943177,-9.291779
22.389072,2.449056,3.699323,-9.82795,-0.038907,2.988968,-9.256015
22.422415,1.572149,3.352002,-9.009553,-0.052375,3.078754,-9.282502
22.455707,2.229231,3.152079,-9.619647,0.027983,3.060498,-9.315423
22.489094,2.507717,4.684124,-8.958076,0.083201,3.061994,-9.278162
22.52242,-0.204113,4.844241,-7.352407,0.102356,3.162704,-9.296418
22.555737,-1.588011,4.479562,-8.834022,0.171192,3.077258,-9.295969
22.589067,-0.944546,5.502521,-10.856596,0.156676,3.086685,-9.360615
22.622413,-1.74364,4.7359,-6.912606,0.060456,3.08893,-9.324252
22.655743,1.656398,6.296826,-6.277671,0.152785,3.121702,-9.481078
22.689089,2.770789,11.483001,3.276283,0.601714,3.173328,-9.923871
22.722406,29.847782,-1.406943,-33.892631,-0.369917,3.2691,-10.455253
22.755733,-2.533156,4.053528,-9.556947,-0.015563,3.269549,-10.737031
22.789077,2.048163,3.074414,-9.362112,0.910577,2.483175,-10.826218
22.822355,1.75202,3.37385,-10.00004,0.727714,5.243788,-11.618877
22.85575,1.542071,2.614113,-9.113704,-0.048185,4.5891,-11.064899
22.889099,1.994142,2.890952,-9.443069,-1.19011,4.912179,-9.009703
22.922399,1.830283,2.717965,-9.276965,-3.276432,5.325493,-11.137326
22.955739,1.843302,2.680105,-9.144531,-5.151907,0.168199,-13.430155
22.989057,1.894779,2.734725,-9.512503,-2.149621,-0.603959,-10.206996
23.022402,1.89448,2.672473,-9.320212,-1.497776,0.128543,-10.056156
23.055735,1.859912,2.607977,-9.377675,-1.906601,0.752255,-8.293661
23.08908,1.904955,2.743703,-9.349392,0.991684,1.625721,-9.385007
23.122401,1.943263,2.751036,-9.369295,2.286993,1.681687,-10.976759
23.155734,1.949848,2.751335,-9.267986,2.339667,4.187309,-13.287097
23.189085,2.095899,2.784706,-9.307492,-2.613963,7.216531,-14.0609
23.222373,1.928598,2.681003,-9.264993,-0.840993,7.599168,-12.941272
23.255735,1.91932,2.699858,-9.296867,2.123882,18.661523,3.09297
23.289077,1.989054,2.725597,-9.322307,2.907263,26.720694,4.318247
23.322406,1.945658,2.776176,-9.528515,2.17117,32.789463,-9.384259
23.355749,1.983218,2.994954,-9.745497,0.05028,-6.347106,-8.951043
23.389069,2.505771,3.312646,-9.905465,1.3411,3.491619,-9.059983
23.422407,2.219654,3.643357,-9.257062,0.646757,4.590148,-10.137861
23.455751,0.388323,3.187694,-8.815466,0.185707,3.370408,-9.356425
23.489083,1.10227,3.952519,-9.012546,0.090684,3.161058,-9.322007
23.52239,2.012698,4.557526,-8.834022,-0.11328,3.199067,-9.190322
23.555736,0.790264,2.958142,-9.568769,0.127047,3.124994,-9.393836
23.58907,1.137586,2.608127,-9.757917,0.228056,3.012163,-9.349392
23.622455,3.523942,2.869104,-9.992857,0.045491,3.049873,-9.241051
23.655735,4.345332,-0.454017,-10.995464,0.266364,3.107336,-9.346848
23.689069,4.280237,-0.305272,-11.069089,0.199624,3.015455,-9.330537
23.722314,2.113707,1.378361,-10.303216,0.053871,3.269249,-9.247186
23.755751,0.603809,2.204241,-10.572424,0.193339,3.104044,-9.266191
23.789124,-0.808521,2.477339,-10.575117,0.109389,3.110478,-9.250777
23.822363,0.099662,2.062229,-10.484434,0.199474,3.086685,-9.281903
23.855782,1.007247,2.756273,-11.034072,0.123156,3.156718,-9.232521
23.88905,2.512206,2.209179,-10.971522,0.300333,3.161058,-9.299411
23.92236,1.780152,2.230877,-9.926116,0.133182,3.052118,-9.222644
23.955734,1.541622,3.602654,-8.816513,0.11328,3.080101,-9.222345
23.989108,1.130104,4.201974,-7.273994,0.286566,3.072768,-9.290732
24.022787,0.250951,4.834664,-7.672792,0.190795,3.02189,-9.245989
24.05574,2.052353,7.150389,-12.951597,0.103104,2.953353,-9.2412
24.089044,1.723587,5.91778,-9.568619,0.305122,3.05092,-9.33772
24.122656,-1.725533,4.058915,-4.947345,0.196631,2.955598,-9.242547
24.155685,0.095771,6.239063,-9.348494,0.334602,3.016951,-9.361363
24.189072,1.535037,4.512034,-5.870792,0.344628,3.061246,-9.448007
24.222364,-0.163111,4.196288,0.435012,0.430074,3.171383,-9.512204
24.255723,1.663132,16.390242,10.241414,0.310359,3.133972,-10.220913
24.288271,-0.970285,33.30229,-16.900824,0.086194,3.201611,-10.445676
24.322326,0.101608,3.467526,-7.872865,1.100774,3.794047,-10.217321
24.355712,1.981422,3.598464,-10.175421,0.277588,2.577749,-10.714435
24.389021,1.977532,3.198019,-9.785152,1.395869,2.521484,-11.686216
24.422401,1.691714,2.720958,-9.370043,0.457309,4.524604,-10.840135
24.455734,1.730172,2.768694,-9.233419,-1.241139,4.037666,-8.282887
24.489097,1.871884,2.740711,-9.285046,-6.276025,14.599016,-19.413628
24.522403,1.960772,2.758518,-9.423765,-7.15413,-0.414361,-9.865211
24.555755,1.892534,2.835584,-9.382912,0.349716,-1.607913,-10.320724
24.589108,1.817414,2.664692,-9.178799,-0.893368,-0.545897,-8.81786
24.622441,2.001624,2.751485,-9.350739,-0.018107,0.036214,-9.255865
24.65577,2.004318,2.698062,-9.30824,1.117982,2.297169,-11.849477
24.68905,1.984714,2.857432,-9.306445,1.535935,2.717666,-11.633841
24.722439,1.980824,2.874042,-9.305247,0.7126,3.226751,-11.940011
24.755772,1.947902,2.780965,-9.249431,1.467548,7.194085,-14.690598
24.789098,1.901363,2.813437,-9.302105,0.917611,6.571121,-9.497239
24.822432,1.903907,2.827952,-9.296568,-2.781713,14.663961,-1.078477
24.855754,1.862905,2.790242,-9.275917,2.293278,21.641064,-7.014363
24.889107,1.91947,2.936444,-9.456536,3.48713,23.183434,15.260588
24.922432,1.990401,3.113621,-9.713174,2.506819,-1.844948,-11.594784
24.955844,2.321411,3.009619,-10.368012,0.736393,-0.943199,-6.841077
24.989106,0.900551,2.276219,-8.831328,-0.597225,2.382166,-9.128519
25.022442,2.943926,5.976739,-9.705542,0.59528,3.206848,-9.631319
25.055769,2.074799,5.542625,-9.103529,0.392962,3.123946,-9.481676
25.089103,2.101286,4.214843,-9.128669,0.041601,3.210589,-9.145279
25.122444,-0.626555,2.333682,-10.712789,0.203514,3.279724,-9.265592
25.15577,0.642716,0.256638,-12.349883,0.108192,3.251592,-9.2623
25.189102,4.345033,2.119692,-10.873655,0.059259,3.293492,-9.190322
25.222317,4.715549,-0.570439,-6.939542,0.086494,3.26491,-9.231024
25.255771,3.539505,2.474196,-9.206034,0.013618,3.224656,-9.177303
25.288933,1.513189,2.632968,-8.672407,0.092779,3.272841,-9.195858
25.322059,0.088888,2.970861,-9.049956,0.16341,3.300076,-9.218006
25.355662,0.360041,3.409465,-10.29723,0.081855,3.211936,-9.228481
25.388313,1.633502,4.025395,-10.852855,0.232395,3.267903,-9.28729
25.42232,1.3622,2.938389,-9.231174,0.031126,3.111975,-9.155155
25.455715,2.990465,2.427807,-10.485182,0.1046,3.116165,-9.167277
25.489082,2.885864,2.699708,-9.820318,0.333853,3.128884,-9.359568
25.522415,1.087605,3.365021,-9.92866,0.102655,3.088181,-9.200348
25.555802,0.906687,4.135832,-10.513764,0.166852,3.117661,-9.263198
25.58907,1.397815,3.098357,-8.860209,0.231049,3.086685,-9.272775
25.622402,-0.783231,3.161357,-6.789151,0.216234,3.172879,-9.209476
25.655782,1.384347,5.040573,-9.105624,0.265467,3.175723,-9.297616
25.689074,1.473384,6.002328,-10.201609,0.217132,3.148488,-9.258858
25.722416,1.446299,6.21123,-9.072104,0.242122,3.110628,-9.307193
25.755705,2.550215,4.569048,-8.303388,0.401043,3.172131,-9.372138
25.789066,3.064388,4.690857,-7.437703,0.191842,3.099405,-9.386653
25.822415,2.68654,6.964682,-4.637884,0.506242,3.257428,-9.686837
25.855731,3.366817,14.848471,-1.504061,0.824383,3.448073,-10.174523
25.889072,-2.616657,-1.479221,-1.713412,-0.455363,3.186647,-10.304413
25.922399,-0.736094,3.860189,-13.075801,-0.301979,3.30262,-10.325214
25.955682,0.996772,2.506968,-9.284597,-0.25574,-0.536021,-9.692523
25.989122,1.479669,3.044037,-9.654813,0.042199,4.860702,-11.405187
26.022364,1.599982,3.135768,-9.752829,0.266813,4.687565,-11.576229
26.055735,1.813074,2.86686,-9.561885,-0.839347,7.370813,-8.849734
26.089069,1.783594,2.885415,-9.686089,-6.531017,5.634506,-18.666461
26.122412,1.668668,2.619799,-9.395781,-7.091729,-1.122771,-12.215653
26.155731,1.622878,2.677112,-9.393537,-0.866133,-1.855872,-10.942192
26.189093,1.652956,2.682799,-9.397427,-1.218094,-0.76707,-9.143783
26.222415,1.669566,2.625186,-9.376028,-0.551285,1.139232,-10.535462
26.255621,1.591602,2.635512,-9.244941,2.254371,1.488199,-11.09782
26.289063,1.709222,2.730385,-9.451748,4.366731,2.381119,-12.739403
26.322417,1.697699,2.692226,-9.346698,2.178203,3.848667,-14.426179
26.355733,1.720595,2.669481,-9.427356,-1.414724,6.03525,-14.23718
26.389044,1.642182,2.63611,-9.410446,-3.499999,12.917927,-12.046706
26.422403,1.711466,2.652122,-9.351637,4.285175,22.862898,-9.370791
26.455763,1.747381,2.596305,-9.243594,5.471545,23.959781,10.241563
26.489022,1.843751,2.653768,-9.426907,15.545658,19.651411,14.041147
26.521922,1.678545,2.609623,-9.752231,-9.432444,22.329571,-13.158404
26.555757,1.690067,2.695518,-9.725445,1.619586,3.559557,-7.814504
26.589025,2.351489,3.311299,-10.099402,-0.929432,3.440591,-9.434539
26.622415,-0.633738,0.320685,-8.383148,-0.186006,2.678908,-9.214115
26.655735,0.621617,4.545704,-8.522764,-0.193039,2.515797,-9.166828
26.689092,2.192718,5.162083,-9.723948,-0.518662,2.842318,-9.352235
26.722407,1.621232,4.540466,-9.247186,-0.437855,2.848154,-9.435437
26.755757,2.427059,1.823399,-11.090338,-0.452221,2.868805,-9.345801
26.789568,5.568513,-0.241524,-12.98377,-0.273248,2.763157,-9.447259
26.822389,5.148915,-1.779853,-9.106073,-0.473021,2.873145,-9.319015
26.855525,2.755226,0.845034,-9.06088,-0.298837,2.787698,-9.367349
26.889086,0.973727,1.634251,-9.706739,-0.351511,2.811791,-9.359867
26.922385,0.117769,1.172303,-10.080248,-0.433965,2.807751,-9.334428
26.955731,1.655051,2.173414,-10.194575,-0.402988,2.831544,-9.395482
26.98903,2.776026,2.842318,-10.272988,-0.462995,2.853541,-9.339965
27.022385,-1.137137,3.713839,-8.308925,-0.51956,2.727991,-9.295371
27.055739,-0.315148,4.470583,-9.692972,-0.519111,2.773033,-9.358221
27.08905,1.755312,4.109345,-8.835369,-0.351362,2.737568,-9.362112
27.122405,2.041429,2.679956,-10.027125,-0.550536,2.808499,-9.317368
27.155734,2.273376,1.812775,-11.032875,-0.573432,2.794432,-9.315722
27.189065,0.952028,2.673671,-9.485118,-0.493373,2.833489,-9.347147
27.2224,0.360041,3.475158,-7.794602,-0.585852,2.668134,-9.290283
27.255739,0.169695,4.278142,-8.643676,-0.64945,2.732331,-9.306744
27.289082,2.863717,6.179505,-12.322049,-0.70422,2.767048,-9.321259
27.3224,2.299713,5.072746,-8.356661,-0.636581,2.798922,-9.314525
27.35573,0.51537,4.172644,-6.221406,-0.552182,2.779318,-9.305696
27.389086,1.679144,5.715762,-7.61922,-0.606802,2.800119,-9.370043
27.422315,2.502928,6.550171,-8.510793,-0.454615,2.886912,-9.420921
27.455697,0.041601,5.715313,-2.77453,-0.474518,2.69058,-9.516094
27.489077,0.101907,8.305782,4.651052,-0.257685,3.136067,-10.022636
27.522247,11.819249,13.13476,-26.257399,-0.555175,3.384624,-10.430263
27.555471,-2.645538,0.377549,-6.636814,-0.925841,3.099255,-11.121314
27.588706,1.133545,3.307259,-9.756122,-1.577386,1.584868,-11.322285
27.622397,1.426546,3.141305,-9.881522,0.8383,4.830774,-11.759092
27.655091,1.573496,2.880178,-9.397427,-0.695241,3.425626,-11.496319
27.688252,1.765637,2.656761,-9.386952,-4.151844,4.767774,-11.481205
27.7224,1.776262,2.695668,-9.399672,-8.541769,2.352537,-18.08839
27.755745,1.661785,2.735922,-9.571761,-2.568472,-6.557504,-10.20116
27.789067,1.772371,2.736969,-9.367349,-0.162063,-3.116314,-9.371838
27.822404,1.662234,2.701205,-9.326347,-0.665612,-0.628201,-10.248596
27.855162,1.683334,2.624588,-9.317967,-0.282077,2.016888,-12.047155
27.889087,1.706678,2.602889,-9.473446,1.67226,2.976997,-12.859567
27.922414,1.840459,2.805656,-9.581488,1.507503,4.478364,-13.495848
27.955733,1.715656,2.639552,-9.430349,-0.576125,6.733484,-14.042494
27.989032,1.733464,2.648231,-9.321558,-2.847556,11.062355,-8.838511
28.022417,1.745735,2.711979,-9.311981,3.451215,19.012136,-5.711722
28.055736,1.726431,2.64868,-9.299112,1.45438,19.698249,4.491832
28.089044,1.75621,2.658108,-9.237309,8.407539,24.141747,16.79338
28.122403,1.930693,2.571165,-9.427955,-7.734595,18.031377,-17.822325
28.155776,2.069113,2.515199,-9.603486,1.931292,5.005257,-12.113148
28.189073,1.905703,3.050023,-10.155818,3.241566,4.815211,-10.839387
28.222415,1.356513,2.993308,-9.755373,-0.426782,3.242014,-9.593609
28.255707,1.549403,3.077258,-8.728374,-0.459404,2.627581,-9.139144
28.289077,1.206421,3.527683,-8.960919,-0.204263,3.236029,-9.458631
28.322417,1.725383,2.473448,-11.413417,-0.657681,3.232138,-9.4088
28.355733,3.010367,-1.505857,-12.173903,-0.568942,2.432446,-9.022273
28.389074,3.962545,1.408739,-11.779743,-0.161016,2.582239,-9.252573
28.422426,3.308755,-2.325002,-7.173135,-0.25155,2.613963,-9.326796
28.45574,3.150433,0.350913,-11.361341,0.210099,2.670528,-9.446211
28.489069,1.74334,2.80401,-11.650003,-0.089187,2.516545,-9.311981
28.522232,0.486489,2.677561,-9.650174,-0.145004,3.149984,-9.331884
28.555738,0.864188,1.864252,-10.625098,-0.105049,3.039398,-9.406556
28.588412,1.724336,3.535165,-12.297657,-0.167301,3.016503,-9.379021
28.622404,0.585254,3.2061,-9.578795,-0.314549,3.125143,-9.328891
28.655755,1.434178,2.553807,-8.211507,-0.212643,2.969365,-9.286991
28.68907,2.905019,2.712727,-8.456473,-0.12555,2.863418,-9.303601
28.722403,3.926032,3.186048,-9.966071,-0.425285,2.963679,-9.210224
28.755749,3.425477,3.927678,-10.51975,-0.290906,2.859078,-9.242547
28.789065,1.106161,3.414702,-7.119862,-0.403138,2.966073,-9.255566
28.822401,1.313865,3.95656,-7.689104,-0.431121,2.976398,-9.252124
28.855749,1.162127,4.719739,-9.489308,-0.415409,2.846508,-9.251675
28.889065,0.976271,4.5472,-8.621529,-0.32682,3.28571,-9.370192
28.922399,0.201868,5.726836,-9.1363,-0.422292,3.15148,-9.307193
28.955845,0.721878,5.438025,-6.208985,-0.124653,3.080999,-9.389496
28.989056,1.630659,8.43672,-3.995766,-0.132135,3.341527,-9.524175
29.022399,-1.66403,15.042857,7.875259,-0.165804,3.375047,-9.883767
29.055731,-2.723651,-0.387426,-3.703214,-0.932126,3.705608,-10.173176
29.088246,0.550087,4.628905,-12.828441,-0.555924,3.111526,-10.700369
29.122399,1.530847,3.11377,-9.959037,-1.735409,1.721941,-11.687264
29.155677,1.639787,3.126041,-9.733974,0.78353,5.37712,-10.819335
29.189067,1.614647,2.691777,-9.384109,-1.115439,3.994868,-10.073514
29.222412,1.714459,2.956945,-9.457883,-1.654153,5.245285,-8.664177
29.255702,1.637842,2.782162,-9.334278,-2.727392,2.114006,-18.230402
29.289065,1.64727,2.722304,-9.238357,-5.962224,-2.859078,-14.640168
29.322387,1.757407,2.880178,-9.287889,-1.01862,-2.954401,-8.99803
29.355793,1.791376,2.874192,-9.295072,-0.547693,-1.394822,-8.461111
29.388993,1.731219,2.839026,-9.235963,-1.03942,1.585916,-11.998671
29.422399,1.706229,2.725896,-9.262749,1.380456,2.077343,-12.541875
29.455779,1.800354,2.909957,-9.299262,2.57745,2.429304,-12.135594
29.489098,1.820855,2.899182,-9.298513,0.514921,3.633929,-12.868844
29.522409,1.855423,2.899781,-9.294922,-4.059364,8.506603,-14.365274
29.556033,1.878767,2.948864,-9.334428,-0.67908,16.205882,-11.320339
29.588044,1.865599,2.874042,-9.296718,-1.774167,20.951659,-6.608981
29.622394,1.720295,2.923874,-9.317518,5.420068,23.18927,18.0007
29.655676,1.73092,2.940035,-9.395931,3.263862,6.282609,-36.505547
29.689056,1.882359,3.203855,-9.764053,-3.186946,1.514387,-22.947297
29.722394,2.620547,3.238423,-9.900228,-1.358908,4.715848,-9.017035
29.755714,0.885437,3.735238,-8.718647,-0.442644,3.677625,-9.247036
29.789031,1.151951,1.527106,-8.935629,-0.462696,3.243511,-9.374532
29.822404,2.023622,5.228225,-9.169372,-0.560263,3.0593,-9.251226
29.85571,0.745521,1.683034,-10.672685,-0.546346,3.039099,-9.288188
29.889061,1.871584,-0.33101,-11.863693,-0.442494,2.965175,-9.398026
29.922395,5.124074,0.176429,-12.423507,-0.673992,3.048227,-9.19945
29.955753,3.819936,-0.395806,-8.05109,-0.419,3.071122,-9.405658
29.989062,3.069775,0.698833,-8.957776,-0.30168,2.806853,-9.282053
30.022409,2.964876,2.251378,-12.121977,-0.717538,2.987621,-9.239404
30.05574,0.604258,1.473684,-9.230725,-0.67908,3.018598,-9.274421
30.08908,0.509834,1.443007,-9.853689,-0.658728,3.033412,-9.22025
30.122377,1.79362,1.321796,-11.020904,-0.655137,3.157765,-9.278162
30.155729,2.642994,1.675402,-11.87312,-0.763628,3.152528,-9.133457
30.189073,2.064025,2.118196,-9.641046,-0.726367,3.083094,-9.155754
30.222375,2.123882,4.411624,-7.444138,-0.770661,2.955299,-9.149768
30.255207,2.051306,5.653062,-8.921114,-0.638526,3.191136,-9.282801
30.289077,3.36966,7.169992,-13.200753,-0.578819,3.120205,-9.278162
30.322406,-0.659177,4.824788,-8.312666,-0.723524,3.099405,-9.185383
30.355725,-0.626405,4.056222,-8.389582,-0.580615,3.187544,-9.287739
30.38905,0.672196,3.802577,-8.33182,-0.654089,3.114369,-9.238806
30.422403,1.821903,4.87402,-8.350525,-0.704369,3.10569,-9.16982
30.455743,1.757706,5.171062,-8.8014,-0.46943,3.149834,-9.336074
30.488997,0.880499,6.828208,-6.961689,-0.596626,3.089977,-9.271578
30.522394,0.940356,4.292508,-2.424665,-0.687011,3.006776,-9.329639
30.555741,1.659391,9.026313,-3.884881,-0.441447,3.140856,-9.599894
30.589068,8.092391,-6.38736,-23.299706,-0.803433,3.410363,-10.293639
30.622413,-3.057804,-1.217495,-10.463484,-1.461114,3.060797,-10.6242
30.655736,0.667856,3.004381,-11.06864,-1.22812,2.433494,-10.904482
30.689078,1.443905,2.871648,-9.127322,-0.331309,3.85151,-10.822477
30.72233,1.637543,2.890802,-9.407753,-0.514024,4.137179,-12.327586
30.75565,1.631856,2.70734,-9.456836,-0.925542,3.664307,-10.062141
30.789007,1.782547,2.712877,-9.473895,-5.531402,6.549423,-12.535889
30.822399,1.621082,2.613065,-9.29986,-7.390416,-3.030719,-12.160884
30.855034,1.692312,2.644041,-9.338917,0.100859,-3.091923,-9.676512
30.889063,1.709521,2.74954,-9.357473,-0.016461,-1.249219,-9.226236
30.922403,1.674505,2.673072,-9.345651,-0.480354,0.831566,-10.169435
30.955743,1.899568,2.876886,-9.427506,0.252897,1.547009,-10.995165
30.989069,1.745286,2.760314,-9.360166,2.812539,2.935246,-12.164625
31.022335,1.801551,2.697913,-9.326197,1.450489,4.45921,-12.892189
31.055689,1.799456,2.721706,-9.355078,-3.924985,6.626938,-14.150536
31.089009,1.892684,2.730535,-9.3253,-3.499999,7.326369,-10.216573
31.122338,1.870686,2.674419,-9.319912,-1.160182,24.533662,0.52375
31.155665,1.855573,2.722604,-9.330986,2.193616,19.077381,3.476655
31.189067,1.800803,2.57311,-9.278312,9.671873,46.823727,-18.946144
31.222338,1.951344,2.487814,-9.326197,-1.614198,-6.192824,-7.097864
31.255744,2.075099,2.515199,-9.498287,0.45252,3.216725,-8.718348
31.288997,1.677049,2.912501,-10.137561,-0.292851,4.864743,-10.136364
31.322408,1.686775,3.056158,-9.843663,-0.260977,3.383128,-9.396679
31.354772,1.604921,3.679121,-8.974387,-0.231049,3.347213,-9.228481
31.389064,1.302791,4.06969,-9.013144,-0.338043,3.173328,-9.408501
31.422403,2.348197,4.515626,-9.445463,-0.375005,3.217473,-9.202742
31.45574,0.530335,1.77267,-10.54474,-0.38982,3.203556,-9.199001
31.489068,1.300996,1.449741,-10.146091,-0.221322,3.262366,-9.229079
31.522393,3.774893,3.10569,-13.215717,-0.198576,3.273589,-9.282502
31.555706,4.052331,-0.958014,-8.424299,-0.145752,3.266257,-9.251376
31.58907,2.504424,-0.112831,-9.201096,-0.33939,3.136367,-9.194661
31.622406,2.733827,-0.162063,-10.30591,-0.295694,3.2061,-9.332931
31.655728,2.627132,-1.081021,-10.986037,-0.297341,3.178416,-9.173861
31.689067,0.874513,-0.134679,-11.773009,-0.434114,3.067381,-9.157999
31.722487,0.34373,1.829834,-13.029112,-0.116422,3.149086,-9.286991
31.755739,0.170593,2.625037,-11.564856,-0.273996,3.109431,-9.193314
31.789075,-0.886934,2.752083,-8.211507,-0.097717,3.106887,-9.266789
31.822303,0.116273,2.067467,-5.493393,-0.039805,3.079203,-9.228181
31.855376,2.575355,6.789151,-12.654107,-0.153534,3.099405,-9.196158
31.889068,4.349073,7.642265,-13.849455,-0.022746,3.092671,-9.285794
31.922348,1.240839,6.058444,-9.99151,-0.046389,3.060946,-9.235364
31.955758,-0.955321,5.628969,-8.060218,0.181667,3.179314,-9.391142
31.989085,0.630296,7.975969,-7.364378,0.307516,3.187395,-9.387701
32.022335,0.528389,6.367607,-3.39465,0.208453,3.21882,-9.604234
32.055748,1.112745,7.44758,-3.916605,0.678631,3.217323,-9.661398
32.089069,-0.620869,17.955358,12.415875,0.608897,3.15597,-10.35619
32.12235,35.865673,18.770613,-58.584166,-0.577023,3.460344,-10.684057
32.15575,-0.63688,2.788596,-6.935651,-0.648104,2.940035,-11.263475
32.189088,0.925841,2.687438,-8.88939,-0.936166,0.01691,-11.510685
32.222405,1.880713,2.862221,-11.111288,-2.603638,3.217623,-11.958866
32.255773,1.629911,2.7241,-9.521032,-1.392278,3.020094,-8.266127
32.289118,1.62602,2.558595,-9.14902,-8.24398,12.6987,-14.474962
32.322344,1.622578,2.828102,-9.336672,-3.425926,-1.468297,-9.930605
32.355749,1.562422,2.500085,-9.166079,-0.817649,-0.75839,-10.780128
32.389105,1.587861,2.517443,-9.179398,-0.112681,-0.355402,-9.76091
32.422385,1.633502,2.345055,-9.260504,1.661935,1.840608,-11.171594
32.45576,1.78105,2.859976,-9.434838,2.817926,2.245093,-10.450016
32.489106,1.735709,2.740411,-9.311981,2.885266,2.403565,-11.308966
32.522421,1.759053,2.702851,-9.435437,1.311471,4.068941,-12.332225
32.555767,1.694108,2.685193,-9.373634,-3.271793,7.867777,-14.047283
32.589096,1.777908,2.742207,-9.405807,2.425413,9.143034,-13.951362
32.622397,1.79362,2.545277,-9.282651,-1.209414,15.977078,-10.44837
32.65577,1.702787,2.659006,-9.370791,2.085873,14.14066,-2.197956
32.689072,1.800055,2.601692,-9.289086,5.449846,14.060451,2.399674
32.722418,1.889541,2.67397,-9.273523,4.033775,14.308859,6.99072
32.755753,1.860511,2.638804,-9.44681,-15.510641,17.653827,-25.147796
32.789113,2.02437,2.611419,-9.619797,3.091025,6.928768,-13.875493
32.822433,1.962118,3.010816,-9.944672,4.468488,4.096027,-8.66298
32.855776,1.958976,3.384475,-9.659303,-1.280495,4.188207,-9.460427
32.889083,0.845632,2.870601,-8.918121,-0.451473,3.172879,-9.230426
32.922429,1.707426,4.838256,-9.63955,-0.191543,3.138162,-9.255716
32.955668,0.8802,3.683162,-10.143098,-0.182415,3.318033,-9.403563
32.988867,-1.633951,0.621318,-11.917115,-0.273248,3.396895,-9.248982
33.022434,3.781777,3.304715,-14.566693,-0.359442,3.269399,-9.196307
33.055724,5.580335,-1.999379,-8.883554,-0.239578,3.052417,-9.301057
33.0891,4.119221,0.06719,-7.871818,-0.338492,3.270147,-9.221896
33.122404,4.257192,2.137051,-8.649063,-0.162812,3.271195,-9.341611
33.155777,4.492132,2.012398,-10.542346,-0.408974,3.20595,-9.221747
33.189091,2.498289,2.355979,-8.718797,-0.408376,3.269698,-9.202443
33.222442,2.562935,4.500661,-9.787547,-0.320086,3.282867,-9.179996
33.255758,3.545939,4.563811,-10.240516,-0.157724,3.342425,-9.266789
33.289089,1.816366,4.674546,-8.862454,-0.280581,3.368463,-9.186281
33.322471,0.556971,3.795993,-6.647289,-0.375454,3.298131,-9.16159
33.355764,3.296484,5.786693,-9.744898,-0.285369,3.295736,-9.235065
33.38909,4.671404,5.539483,-7.702122,-0.237932,3.321325,-9.22459
33.422403,2.420475,5.691669,-8.411879,-0.186006,3.29424,-9.239404
33.455763,1.480567,6.21108,-11.094528,-0.357946,3.260421,-9.01509
33.489099,-0.008829,5.724441,-9.365254,-0.414511,3.25234,-9.129567
33.522381,-0.292702,5.398519,-6.670334,-0.2933,3.240518,-9.238656
33.555762,0.661721,5.215655,-6.120397,-0.254992,3.114369,-9.166379
33.589108,-0.717388,5.971801,-0.543503,-0.218329,3.339582,-9.29148
33.62237,-7.368119,24.076952,-31.405116,-0.623861,3.267903,-9.263647
33.654833,2.39743,2.29657,-8.209562,0.032772,3.207447,-9.305996
33.688163,1.800504,2.587476,-8.510344,0.018855,3.214929,-9.170269
33.722367,1.853178,3.64201,-9.915342,-0.561011,3.141903,-9.370941
33.754835,1.305635,2.784556,-9.401917,-0.156227,3.090875,-9.886461
33.788178,1.602676,2.761212,-9.242397,-0.702125,3.604749,-9.150965
33.822376,1.694706,2.94647,-9.391891,-0.179422,1.32419,-10.566438
33.854874,1.485805,2.794283,-9.357922,-2.642694,1.812026,-10.676575
33.888162,1.603723,2.692974,-9.345202,-8.290369,3.434455,-9.749088
33.922347,1.484757,2.892299,-9.58478,-13.616012,-1.476677,-8.971693
33.954833,1.492688,2.800119,-9.432145,-0.980161,2.53974,-6.468765
33.98808,1.363846,2.771687,-9.343556,3.148937,4.422997,-4.652549
34.022388,1.531147,2.374235,-9.238357,10.891014,14.064791,-14.291051
34.054827,1.706827,2.718863,-9.332333,9.335475,7.973575,-14.715738
34.088125,1.462012,2.597951,-9.326796,-0.252148,2.739663,-10.896251
34.122331,1.519474,2.906365,-9.476888,0.873466,3.865726,-9.675763
34.154833,1.62632,2.735772,-9.308091,0.445188,3.261767,-9.147973
34.188162,1.44166,2.625785,-9.259008,0.413164,3.61702,-9.256763
34.222389,1.463358,2.676813,-9.323803,0.478708,3.284812,-9.420023
34.254796,1.579481,2.987621,-9.462821,0.354055,3.316836,-9.250029
34.289052,1.68917,2.550814,-9.173262,0.158622,3.026529,-9.237609
34.322408,1.603873,2.458035,-9.1574,0.705267,3.266556,-9.338618
34.355708,1.482064,2.579695,-9.195559,0.467036,3.030719,-9.183139
34.389083,1.541622,3.05541,-9.58508,1.005002,3.388365,-9.469106
34.422446,1.530548,2.87524,-9.416881,0.501753,2.695668,-9.331585
34.455753,1.355915,2.815532,-9.02751,0.369917,3.116913,-9.251974
34.48914,1.751421,2.843515,-9.583883,0.486489,3.195625,-9.429152
34.522317,1.561375,2.690281,-9.36705,0.64137,3.133523,-9.250777
34.555408,1.58427,2.903073,-9.425261,0.650498,3.047628,-9.31677
34.589108,1.573047,2.927016,-9.472548,0.588546,2.959489,-9.234766
34.622241,1.482962,2.726345,-9.395632,0.707063,3.132775,-9.331136
34.655771,1.49194,2.766748,-9.336972,0.70003,3.053614,-9.311233
34.689031,1.489995,2.815083,-9.380667,0.643764,3.074265,-9.247186
34.722414,1.424451,2.744751,-9.370492,0.581363,2.79144,-9.24973
34.755812,1.463957,2.807601,-9.39219,0.852666,3.298131,-9.357473
34.789031,1.470242,2.739663,-9.355677,0.621168,2.990165,-9.234466
34.822441,1.516182,2.788896,-9.399373,0.735645,3.06798,-9.257811
34.855708,1.488947,2.850399,-9.373335,0.659925,3.001688,-9.259307
34.889134,1.496429,2.753131,-9.345202,0.730557,3.019196,-9.283699
34.922428,1.476377,2.796228,-9.364356,0.69165,3.054811,-9.284148
34.955764,1.462012,2.781713,-9.374682,0.601116,2.904719,-9.195409
34.989557,1.502116,2.736371,-9.337421,0.802236,3.11407,-9.307791
35.022474,1.507054,2.818675,-9.418527,0.644363,2.968168,-9.274271
35.05576,1.502565,2.685492,-9.287889,0.772158,3.07187,-9.302554
35.089349,1.511394,2.838577,-9.386503,0.778742,3.003933,-9.289535
35.122154,1.46695,2.706742,-9.306145,0.632391,3.035657,-9.253471
35.155771,1.45842,2.750886,-9.347147,0.709756,3.0177,-9.251825
35.189103,1.42086,2.649279,-9.25811,0.685215,3.068429,-9.289236
35.222304,1.467099,2.83319,-9.400869,0.316495,2.966073,-9.936741
35.255775,1.584569,2.819423,-9.022721,0.67489,2.947218,-9.482125
35.289069,1.382252,2.794283,-9.426159,0.783979,3.194727,-9.327095