time_tick,acc_X_value,acc_Y_value,acc_Z_value,acc_A_value,acc_B_value,acc_C_value
0.00306,0.950382,3.543246,-9.68564,-2.192419,3.417097,-8.601177
0.03422,0.94724,3.330453,-9.17401,-2.487814,3.233934,-8.605667
0.067383,0.918059,3.352002,-9.230576,-2.386206,3.149385,-9.143034
0.100717,0.979114,3.240069,-9.334577,-2.419876,2.969814,-9.146177
0.134053,0.890525,3.452113,-9.191818,-2.411047,3.194129,-8.724932
0.167402,0.953824,3.348261,-9.250628,-2.343708,3.132925,-8.837912
0.200723,0.944846,3.376693,-9.234766,-2.362264,3.056008,-9.095747
0.234081,0.941703,3.374448,-9.276666,-2.415836,3.175723,-8.864549
0.267408,0.965347,3.282418,-9.245989,-2.368997,3.106288,-8.912135
0.300715,0.961157,3.185449,-9.198402,-2.360917,3.140557,-8.960171
0.334025,1.104365,3.257428,-9.324551,-2.34715,3.211188,-8.888641
0.367409,0.999016,3.367266,-9.197504,-2.362862,3.102697,-8.951791
0.400749,0.947689,3.284363,-9.310784,-2.403715,3.148637,-8.885349
0.434084,1.020715,3.225105,-9.067465,-2.327397,3.180212,-8.93952
0.467459,0.862991,3.645452,-9.547519,-2.378874,3.151929,-8.923957
0.50074,0.965496,3.162255,-8.987406,-2.415088,3.10973,-8.920366
0.53405,1.136688,2.918786,-9.244792,-2.431099,3.069326,-8.909891
0.5674,0.874513,3.389113,-9.519835,-2.381567,3.159711,-8.935929
0.600719,0.927038,3.233485,-9.134954,-2.4097,3.186946,-8.917373
0.634048,0.828723,2.989118,-8.979325,-2.36361,3.124096,-8.911237
0.667379,1.128757,3.127238,-9.198851,-2.382166,3.174376,-8.913781
0.700777,1.234854,3.460493,-9.691326,-2.377976,3.157765,-8.928446
0.734082,1.269571,3.213732,-9.141987,-2.389199,3.133074,-8.903007
0.76732,1.132498,3.300226,-9.389047,-2.412244,3.131428,-8.904653
0.800631,1.046154,3.5835,-9.210823,-2.408354,3.148039,-8.890886
0.833948,1.144619,3.496108,-9.221896,-2.316922,3.148937,-8.938024
0.867365,1.029693,3.562999,-9.238507,-2.344606,3.181858,-8.936228
0.900607,1.074736,3.496108,-9.236561,-2.367202,3.081448,-8.88939
0.933945,1.14432,3.467377,-9.121336,-2.456389,3.086386,-8.874126
0.96736,1.817414,2.553507,-9.198702,-2.331886,3.124694,-8.933385
1.000801,1.178438,3.314442,-8.955233,-2.470306,3.11392,-8.90181
1.034085,1.03508,3.521697,-9.497838,-2.337872,3.213283,-8.976183
1.067384,0.730407,3.474859,-9.145279,-2.320513,3.24815,-9.268136
1.100764,0.956817,3.511521,-8.837314,-2.667086,2.878083,-8.56661
1.134121,1.009641,3.580058,-9.156203,-2.765551,3.096412,-8.828784
1.167384,1.02266,3.606694,-9.080783,-2.848603,3.180062,-8.859611
1.200793,0.915516,3.517208,-8.957028,-2.728889,3.1642,-8.915278
1.234085,1.226174,3.891315,-9.144381,-2.656013,3.127388,-8.854523
1.267491,1.505857,4.376757,-10.570478,-2.639552,3.153426,-8.866943
1.300751,-0.120612,5.425006,-7.727262,-2.656462,3.121552,-8.828036
1.334124,2.214117,4.848581,-8.353818,-2.59421,3.078904,-8.83911
1.367391,-7.971929,-4.310315,-28.212185,-2.599148,3.310701,-8.871133
1.400731,-2.703001,8.12666,-18.671998,-2.675017,3.257877,-8.83896
1.434108,1.494933,-0.515221,-2.167428,-2.499187,3.47007,-9.02347
1.467463,1.109004,5.337465,-6.100793,-2.656013,3.346316,-9.6183
1.500713,-0.446086,2.775128,-4.183568,-3.214929,2.331886,-9.792036
1.534048,-0.973128,3.10988,-6.343813,-5.603081,0.729659,-11.008783
1.567382,0.580615,4.026742,-7.468679,-9.536895,-0.858951,-15.58247
1.600694,3.369959,3.602654,-6.931312,-3.038949,-7.511627,-10.786862
1.634047,4.726622,3.314741,-9.809993,2.380071,-5.469899,-9.509959
1.667666,-0.204712,3.009918,-11.103357,-5.046708,-0.514772,-10.665202
1.700746,-0.124054,3.319081,-10.553718,-7.191241,1.431185,-9.848751
1.734081,-0.911625,3.153276,-10.640212,-5.899224,1.778207,-10.983343
1.767384,-3.136217,3.02159,-11.873719,-4.146007,2.023472,-10.171381
1.800745,-2.914895,2.338919,-10.230041,-1.246526,1.113643,-9.371689
1.834139,-3.149086,2.180747,-9.105025,-1.188464,0.77096,-9.580441
1.867412,-4.079566,4.317498,-10.796589,-4.239834,1.946705,-10.466477
1.900745,-2.407605,5.481271,-10.055108,-0.753003,2.336675,-6.396637
1.934077,-0.161315,5.299605,-7.248106,-0.412266,4.13658,-6.230234
1.967385,-2.326499,9.917736,-8.222132,-2.716618,7.168047,-7.053869
2.000716,-6.009212,9.555151,3.453759,-6.995808,15.069494,3.063191
2.034038,-2.061631,16.101431,-1.465004,-12.557737,16.690875,3.544144
2.067402,0.180918,12.69062,-16.409995,-12.546065,10.066481,-34.441072
2.100717,-0.45267,14.304519,-17.050617,-1.095835,-4.323334,1.04346
2.134045,-1.585467,0.901748,-6.954207,-0.302578,9.787247,-7.369017
2.167416,-0.379794,6.154515,-8.678543,-4.213945,2.883769,-10.484434
2.20074,-0.168797,2.336974,-9.503973,-3.695283,2.988819,-8.40724
2.234141,-0.072876,3.970027,-9.401767,-3.03027,2.549168,-8.211357
2.267433,-0.548292,3.745114,-11.592989,-3.625699,2.378575,-9.64359
2.300749,0.53632,2.976398,-9.357024,-1.396468,1.21944,-8.927249
2.334048,0.222369,3.602205,-9.915342,-3.323869,2.996151,-8.078175
2.367384,0.43576,3.319829,-9.370192,-3.127089,2.603787,-9.81119
2.400802,0.311706,3.179913,-9.410297,-3.341377,2.793684,-9.236262
2.43405,0.044594,2.920132,-9.02751,-3.393453,2.967869,-8.73855
2.467446,0.02918,2.801615,-9.34625,-3.429367,2.807451,-8.778654
2.500714,0.331609,2.931056,-9.112208,-3.681665,2.926417,-8.684828
2.53405,0.537368,3.607443,-10.026975,-3.504189,2.854589,-8.567508
2.567359,-0.28911,3.555965,-9.718262,-3.508529,2.945123,-8.663279
2.600736,2.434242,2.965624,-9.721404,-3.594124,2.494548,-8.555387
2.634051,-3.784171,6.443326,-9.968914,-3.471716,2.697314,-8.714906
2.667382,8.94775,3.568086,-16.008054,-3.180212,2.977446,-8.886097
2.700714,10.482039,1.734212,-15.841801,-3.498802,2.711081,-8.661334
2.734053,8.346635,-0.928235,-8.216894,-3.528581,2.848753,-8.546258
2.76697,4.157231,-4.610649,-6.514107,-3.509875,2.737568,-8.594144
2.799956,-5.216703,0.249305,-8.576785,-3.312047,2.829449,-8.569453
2.83311,-6.013402,2.842318,-11.199278,-3.34452,2.723651,-8.753065
2.867413,-3.743468,1.595792,-8.260291,-3.519452,2.496942,-9.025714
2.900742,-2.483774,2.218906,-9.894092,-3.41171,2.228632,-9.21202
2.934093,1.380606,3.739727,-11.351016,-3.085488,2.085723,-9.924919
2.967377,0.932425,2.697613,-8.392425,-4.00684,7.760483,-18.209302
3.000782,-0.00419,3.167193,-11.099616,-3.283615,2.878382,-12.511347
3.034076,-2.0745,2.64883,-10.987234,-6.811597,0.891872,-12.796717
3.06738,-4.111141,2.188229,-9.536146,-4.628606,-21.006578,-68.327418
3.100725,-2.955897,2.263649,-9.411494,-6.8315,-42.720966,-6.197912
3.134072,-3.296484,3.282867,-10.828313,-8.352471,-6.520991,-11.803387
3.167384,-1.779554,1.988306,-8.111396,-11.213345,7.207553,-12.345693
3.200694,-0.124054,1.381354,-6.401276,-7.851915,9.878529,-18.75924
3.234094,-0.91776,2.903821,-10.596367,-5.601285,9.707937,-14.48858
3.267362,-1.170208,4.472079,-12.704836,-12.880068,15.067698,-2.76211
3.300718,-2.405959,0.421095,-3.447923,-5.645579,13.488516,-4.490336
3.334084,-3.207597,0.973727,-6.065926,-6.273332,18.332159,-6.05605
3.367407,-3.858843,3.774294,-12.836073,-2.936593,21.375597,7.49771
3.400713,-2.114006,2.323207,-4.444545,0.807174,-10.928125,-8.83911
3.434069,-0.471525,5.017229,-2.605583,-23.072398,17.320872,-47.335805
3.467419,0.161016,15.143717,-15.598631,-2.357625,2.050408,-12.279102
3.500713,3.19787,9.622341,11.091535,-6.372545,4.793662,-8.40739
3.534216,-12.407196,-2.363161,-32.076714,-3.777587,0.222669,-8.122918
3.567409,0.7126,6.352044,-16.661246,-2.593312,0.184659,-8.247421
3.600714,-4.30433,-1.770725,-10.410061,-6.010409,2.42676,-7.676534
3.634104,3.880092,5.050449,-12.860165,-4.842895,0.333704,-10.358584
3.667406,-0.988092,2.72829,-10.210288,-3.31938,-0.178524,-7.51881
3.700699,-0.385181,0.90953,-7.948435,-3.560754,1.586515,-8.764138
3.734105,-0.664714,1.425948,-8.555237,-5.412136,1.497627,-9.331585
3.76737,-0.297789,3.012163,-9.824957,-4.500661,0.785027,-8.138332
3.800713,0.696438,3.774444,-10.370855,-3.450317,1.376117,-9.428404
3.834027,0.028881,3.129483,-9.875537,-3.54968,0.807324,-8.768777
3.867376,0.284471,2.111761,-9.081232,-4.347427,1.333468,-8.994439
3.900747,0.224015,1.953289,-8.521567,-3.741074,1.629462,-8.876969
3.933427,-0.162363,2.20888,-8.98127,-3.607742,1.252063,-8.741243
3.96738,0.480055,3.068429,-9.42975,-3.480845,1.524413,-8.997881
4.000739,0.005686,2.906814,-9.479132,-4.02779,1.635448,-8.725381
4.034038,0.242571,3.531873,-10.015004,-3.864679,1.011886,-8.521717
4.067409,3.406322,2.303604,-10.388064,-2.973705,1.259245,-8.292913
4.100703,4.141668,4.739791,-14.928081,-2.846508,1.19041,-8.225125
4.134357,12.278204,2.454144,-22.342141,-2.485869,1.670614,-8.916774
4.167374,10.479346,-0.671598,-11.723477,-4.461006,2.785155,-11.746822
4.200738,9.116847,-3.916605,-6.45425,-5.534544,1.542669,-8.094037
4.234044,-0.203215,-1.903009,-7.806424,-3.08025,2.750138,-6.988326
4.267381,-3.466479,1.535337,-9.809843,-4.111141,3.580357,-8.022658
4.300751,-4.650903,2.023622,-12.06601,-4.181024,2.472999,-8.619883
4.334054,-4.916669,1.154046,-10.543842,-3.789708,2.050408,-8.948948
4.367382,-5.957884,3.734789,-11.896165,-4.537324,1.243234,-10.369209
4.400736,-3.974816,1.101821,-10.079949,-10.264459,7.76617,-13.678114
4.43403,-3.915557,2.824361,-13.517846,-5.761104,-1.104964,-17.787459
4.467382,-2.647782,1.251015,-9.675165,-11.107846,-10.579457,-18.191046
4.500745,-1.045855,2.01599,-10.890714,0.071978,-18.81775,1.396169
4.534043,-1.873979,1.690816,-10.142949,-5.048803,-21.569085,-2.720658
4.567444,-0.084698,1.933686,-7.30063,-3.143699,-2.890354,-15.448689
4.600711,-0.375005,1.844349,-6.871454,-5.554297,2.26335,-16.977591
4.634049,-2.185835,5.985269,-14.460597,-9.620096,0.395357,-12.09115
4.667381,-2.850997,5.071699,-8.952389,-4.683375,0.97253,-8.794067
4.70081,-3.221364,3.333297,-5.328336,-6.656418,9.903071,-16.568018
4.734085,-4.159475,5.304244,-8.786735,-6.47924,17.734784,-9.874639
4.767383,-4.735002,10.423379,-6.808305,-16.12717,10.249644,0.119265
4.800688,1.519026,3.64216,4.068343,-1.564667,17.368009,4.604813
4.834073,6.121145,8.351124,-7.358393,-2.763905,27.277365,15.62841
4.867386,10.850161,9.985674,-8.551795,-8.237096,-0.330561,-36.780141
4.900715,-0.937363,4.769869,17.760523,-2.43065,12.950101,1.730022
4.934167,-43.149693,39.252243,-49.683553,-4.290413,5.321453,-5.110007
4.967455,8.491339,-0.991684,-11.528493,-7.630443,4.352215,-5.651565
5.000719,-1.384796,4.425391,-9.736967,-6.721363,0.613536,-8.066653
5.034141,-0.25993,1.139531,-9.203789,-4.419405,2.235516,-9.644638
5.067362,-0.274296,0.094724,-8.853475,-3.701867,1.601479,-9.798171
5.100804,-0.106995,2.633267,-8.983365,-3.816494,2.01599,-8.943111
5.134136,0.485442,4.127601,-10.385221,-2.407755,1.94057,-7.856105
5.167421,0.438753,2.7452,-10.043735,-4.723031,3.216874,-8.137733
5.200717,0.168947,2.422121,-9.165331,-5.362156,2.975351,-8.376264
5.234083,-0.247509,2.248984,-9.013144,-4.333809,2.583735,-8.590702
5.267407,0.382637,3.265209,-10.312793,-4.089143,2.574158,-7.818245
5.300714,0.139018,1.230963,-8.174695,-3.824126,2.878083,-8.303388
5.334027,0.377848,3.193829,-10.20505,-3.983346,2.807451,-8.683032
5.367413,0.582859,3.110478,-10.483686,-3.758133,2.825857,-8.592199
5.400715,4.272905,2.914147,-12.35123,-3.729701,2.804758,-8.707573
5.434151,9.971308,2.29253,-26.599483,-3.899695,2.826456,-8.671958
5.46742,9.018531,-3.489524,-13.040485,-4.135532,3.080849,-8.439713
5.500722,7.738037,-3.313843,-9.231473,-4.265722,3.246354,-8.022807
5.534071,4.683525,-5.631064,-6.314034,-4.460557,3.208943,-7.703469
5.567395,-2.169224,-0.378597,-8.228117,-4.526998,3.359933,-7.805825
5.600746,-4.403693,1.542819,-10.20116,-4.438559,3.180511,-8.154194
5.634032,-4.661827,1.709222,-9.67307,-4.482704,3.005279,-8.451085
5.667383,-1.685279,1.295908,-10.504935,-4.596433,2.973555,-8.21465
5.700728,0.631643,1.626768,-11.791715,-5.563276,4.323783,-8.01757
5.734049,-1.989952,0.118218,-11.273351,-9.562933,0.475266,-7.448627
5.76748,-2.34296,-0.190944,-11.955125,-13.461131,-3.197421,-15.456171
5.800709,-0.475565,0.728163,-11.902899,-17.745259,-15.92605,-48.148815
5.83405,0.007632,1.153149,-8.769526,-17.190533,-8.63784,-6.843322
5.867362,-0.234939,1.073838,-6.033903,6.196864,-32.863536,-6.040038
5.900723,-0.365278,3.534417,-11.274399,-9.862218,-6.313436,-10.649939
5.934046,-1.603723,4.376757,-8.954335,-5.439521,-4.211701,-15.980071
5.967405,-1.646671,1.308478,-3.705908,-8.029841,4.20766,-15.966005
6.000752,-0.848924,2.507268,-7.469278,-6.724505,6.109772,-14.104446
6.034016,-1.594446,7.738635,-11.644167,-7.090681,8.195495,-14.981055
6.067383,-1.703086,3.617319,0.618025,-4.198083,10.72506,-11.163214
6.100728,-2.233571,10.113768,-6.82297,-13.077297,22.984109,-4.888985
6.133978,-1.488349,13.230382,-0.395506,-3.979156,21.086038,4.986253
6.167383,-0.866283,9.607077,5.724591,-3.844028,21.30736,21.072271
6.200713,-17.700067,17.711889,-26.504459,-17.591127,27.839723,-59.057636
6.234093,2.640749,0.936466,-7.787868,-4.894372,3.132775,-6.881032
6.266793,-1.204626,4.190152,-7.924492,-3.839539,3.487279,-6.825963
6.299952,0.282077,3.25219,-13.312237,-7.270552,4.540616,-9.407005
6.333064,0.170294,1.824596,-9.427057,-4.837657,2.044272,-8.350525
6.36738,0.560413,1.845098,-7.972677,-4.240133,2.959189,-8.554339
6.400755,0.441596,2.467163,-10.364719,-3.6251,3.255482,-8.420858
6.434071,0.455214,2.622493,-9.026463,-3.815297,3.185449,-8.150453
6.467384,1.0478,2.636709,-10.102545,-4.260335,3.280473,-8.29815
6.500695,0.304374,1.582923,-8.572745,-3.986189,3.05092,-8.300844
6.533981,0.240925,1.653106,-8.599681,-4.011478,2.688036,-8.180232
6.567385,0.562059,2.286095,-9.606778,-3.886676,2.927914,-8.656396
6.600694,1.078477,2.617554,-10.167789,-3.802876,3.333895,-8.426694
6.633809,0.270704,3.077407,-10.223456,-3.958954,3.173029,-8.258046
6.667025,3.686753,1.60522,-11.532084,-3.714288,3.19368,-8.343043
6.700304,-2.131215,3.064688,-13.40711,-3.885778,3.204903,-8.329875
6.733704,11.293553,3.635276,-27.625734,-3.722069,3.339282,-8.358008
6.767033,9.947964,-5.074542,-11.629352,-3.702167,3.294389,-8.381053
6.800362,4.742035,-2.477189,-7.833659,-3.72147,3.178715,-8.49119
6.833804,-0.023644,-1.003206,-6.976504,-3.627345,3.322373,-8.413375
6.86703,0.512377,-2.416135,-8.566909,-3.599511,3.13502,-8.406941
6.901023,-3.427572,-0.647206,-10.136664,-3.796142,3.170485,-8.462907
6.934026,-2.91265,1.757556,-10.759178,-4.01926,3.129633,-8.622726
6.967422,-1.498824,3.649941,-11.60092,-4.147654,2.830197,-10.044783
7.000691,-0.57418,3.720722,-10.953564,-5.729679,2.625785,-9.393986
7.034042,-2.544379,2.837081,-9.116847,-13.314332,-1.859164,-12.887849
7.067405,-0.900701,4.482554,-13.082535,-5.529008,-3.625699,-20.585931
7.100745,-0.461499,2.067317,-8.683481,-33.64572,-10.86303,-13.009359
7.133687,-0.048634,1.470092,-7.416304,-0.271003,-18.03422,-10.08369
7.167428,-0.992881,4.313907,-13.49525,-9.827052,-3.176172,-10.41066
7.200783,-0.695091,1.507802,-7.637776,-6.264203,-1.665975,-15.052285
7.234051,-1.196844,0.606353,-7.456858,-6.221406,2.102483,-15.539672
7.267405,-1.689319,3.86004,-16.078237,-9.920878,3.492517,-14.767215
7.300722,0.475865,-2.065372,-4.335755,-8.857067,7.241821,-14.423934
7.33404,1.654452,-2.842917,-1.992197,-5.118687,14.043542,-13.28545
7.367376,3.091923,6.666444,-19.989604,-13.57471,24.538001,1.530997
7.400771,-1.047501,1.552995,-2.220402,1.598187,23.686832,12.060473
7.434049,-2.559792,8.494781,-5.291225,-3.748406,20.807702,18.93941
7.467492,-3.641262,15.922458,-10.95536,11.551238,-5.242142,-10.183203
7.500714,-1.488049,11.750114,5.036533,-17.198913,35.419588,-31.655319
7.534048,-1.510496,-4.453374,-17.238119,-13.827308,5.759458,10.096859
7.567552,-3.849266,17.568232,-23.150811,-2.275022,6.960941,-8.976931
7.600713,0.335499,-0.878105,-5.734916,-4.219482,2.225939,-10.038947
7.633547,-1.191756,4.422847,-13.698465,-2.565778,3.896104,-9.910254
7.667365,1.072641,3.238573,-11.27799,-3.83894,3.477253,-8.137434
7.700715,0.23449,1.880413,-9.277863,-4.875666,3.519153,-7.68641
7.734085,0.608448,2.072704,-9.374382,-5.140834,3.475158,-7.295543
7.767381,0.376352,0.676985,-7.769761,-4.94525,3.61672,-7.18331
7.800716,0.657232,3.329406,-10.476652,-4.800097,3.999208,-7.512226
7.834057,1.509448,2.92971,-10.27209,-4.554682,3.595022,-7.782481
7.86738,0.550985,1.967805,-8.781647,-4.465944,3.633181,-7.848473
7.900749,0.444739,1.48371,-8.35277,-4.258988,4.014172,-7.935865
7.93307,1.652208,3.33614,-9.901724,-4.284278,3.65024,-7.944993
7.967379,1.118132,3.045384,-10.413204,-4.323035,3.711893,-7.840841
8.000367,0.913271,3.965837,-9.766447,-4.227264,3.945037,-7.844732
8.034045,2.183291,2.30944,-10.539802,-4.490635,3.829513,-7.72008
8.067382,7.589142,5.042518,-12.884258,-4.368377,3.967633,-7.657529
8.100688,16.618897,-3.574222,-25.264817,-4.141668,3.997861,-7.853711
8.134089,9.800416,-5.759009,-9.354031,-4.351767,3.893859,-7.923444
8.167377,-1.102569,-8.753514,-11.353261,-4.162917,3.872161,-7.787868
8.200717,-3.847021,-1.505258,-6.691733,-4.152741,3.886826,-7.760783
8.234076,-4.941659,2.305699,-13.177109,-4.334258,3.647996,-7.917309
8.267379,2.88332,2.25467,-9.425111,-4.244921,3.719226,-8.048995
8.300757,2.886463,3.313843,-9.984327,-4.367778,3.738979,-8.370727
8.334145,1.13564,4.630851,-12.215054,-4.77765,3.323719,-10.398239
8.367382,-1.298751,5.535442,-13.808752,-6.753237,2.21696,-5.518682
8.400713,-3.615972,2.107871,-5.69152,-12.26294,-1.231561,-12.575993
8.434086,-6.101242,4.319444,-10.471415,-5.454934,-0.033819,-10.052864
8.467382,-5.310529,5.759757,-14.609042,-33.338653,-11.419702,-14.313498
8.500752,0.946492,2.062529,-4.745776,-0.788618,-17.425023,-5.425006
8.534149,4.24567,3.392555,-7.761531,-1.20702,-14.562354,-3.388964
8.566813,0.459254,2.125079,-9.099638,-9.010002,-8.021909,-14.19079
8.600717,-2.850997,2.444418,-5.661741,-10.977058,1.679742,-16.07285
8.63414,-3.339432,8.581873,-12.720099,-7.434561,4.439457,-12.790432
8.66754,-8.032684,12.741349,-5.199943,-14.125097,9.163535,-17.683008
8.70067,-4.628606,15.31431,3.524989,-5.018426,10.243658,-8.095234
8.734105,3.843729,16.091106,-5.535592,-10.783271,25.00803,-9.645685
8.767392,11.624264,0.662619,-25.511578,-4.361643,26.348531,4.521162
8.800741,1.781499,0.894117,-17.205946,7.863737,28.379934,23.540332
8.834049,-1.134144,3.877698,-13.57471,14.233738,-9.395033,-26.435624
8.867395,-1.251165,1.351874,-9.846955,-11.192843,8.451834,-11.058464
8.900708,2.299713,3.058253,-10.992621,-3.136965,2.929859,-4.012975
8.934049,0.307516,2.158001,-9.579543,-1.450788,4.093932,-8.632602
8.967376,1.60088,2.911902,-10.139357,-3.070524,4.510238,-9.274421
9.000717,0.725619,3.301123,-9.657058,-5.416925,2.82481,-8.610904
9.034045,1.261789,1.991748,-9.380069,-4.245819,3.070224,-7.843685
9.067399,0.101009,1.77282,-8.750222,-3.686454,5.643335,-7.078411
9.100727,0.621467,2.416135,-8.739447,-4.121017,4.500512,-8.049893
9.134047,1.304737,2.177006,-10.974814,-3.383876,4.05697,-7.951278
9.167392,1.839261,3.42847,-9.770936,-3.708452,4.328572,-8.250265
9.200723,0.933323,3.876351,-11.10216,-3.823527,3.940248,-8.0677
9.234049,-0.191992,2.991363,-10.9594,-3.479348,4.168604,-8.082964
9.267441,13.404866,3.972272,-19.055832,-3.516011,4.233848,-8.120524
9.300676,15.942511,-3.241865,-15.383594,-3.96045,3.680169,-8.207317
9.334018,4.139274,-9.060282,-11.540913,-3.383577,4.181024,-8.044655
9.367431,-3.465132,-0.652443,-8.378808,-3.560305,4.178779,-8.198189
9.400707,-9.519686,4.509191,-11.828976,-4.022552,3.71324,-7.948734
9.434071,2.362862,0.734597,-8.098826,-3.59607,3.904633,-8.029242
9.467452,4.719888,2.619051,-11.32842,-3.567189,3.972122,-8.188612
9.500791,2.312432,2.46432,-8.824445,-3.619264,3.760378,-8.445399
9.534082,0.636132,3.161507,-11.164112,-5.728931,2.86267,-12.221339
9.566943,-0.759139,3.36562,-11.695644,-6.008314,2.694321,-8.12217
9.60014,-4.297446,3.545041,-10.481142,-11.832417,-1.199239,-12.014383
9.633301,-4.443947,5.345845,-15.386737,-3.574371,-0.055518,-13.368951
9.667357,-1.744986,2.852195,-8.331072,-46.469522,-10.276729,-60.904979
9.700727,0.199324,2.919384,-6.555109,-2.764803,-13.803814,-17.411107
9.734053,-0.111933,5.57824,-18.102307,0.9851,-8.515432,-7.743873
9.767712,-1.373273,0.410022,-5.251121,-8.22707,-3.20595,-13.138351
9.800696,-3.724463,0.249006,-4.712705,-14.327115,4.934925,-16.06417
9.834073,-2.570118,5.785945,-15.119025,-2.106973,7.384281,-17.34691
9.867414,-3.715335,9.888406,-9.322756,-3.634528,11.881051,-16.321855
9.900667,-4.04844,13.459336,2.572512,-10.903883,26.937676,-7.637028
9.93406,1.08536,19.92002,-2.960386,-4.285774,23.137344,-0.713647
9.967385,11.52939,6.080741,-16.565025,6.570822,25.75415,11.102758
10.000718,3.192483,7.005983,-6.704902,14.724118,29.922304,43.578869
10.034091,-2.054747,4.883298,-14.541404,-12.503716,17.228542,-34.463519
10.067428,1.34529,5.262344,-13.697417,-4.968295,18.57069,-11.076571
10.100716,-1.498225,3.497605,-9.011798,-5.313522,11.803087,1.656847
10.134038,1.221984,2.749689,-11.865937,-3.65877,2.429154,-12.44311
10.167393,1.028646,1.813074,-8.668517,-8.464104,3.064688,-9.968465
10.200714,1.52965,2.813437,-10.145343,-3.980802,2.653618,-9.367499
10.234102,1.698148,3.753793,-10.642756,-3.150134,2.522082,-9.389047
10.26749,1.499422,2.485869,-9.177452,-3.056008,3.68376,-8.587709
10.300751,-0.181966,2.720209,-9.470154,-4.475222,3.77609,-5.650967
10.334018,1.686027,2.134806,-7.991233,-4.844541,4.518469,-8.125462
10.367402,1.725533,3.082345,-11.768071,-3.555067,3.100003,-7.968038
10.40059,1.054833,3.636623,-10.055258,-4.010431,4.271109,-8.265827
10.434049,0.818846,3.103445,-9.393836,-3.318183,4.148402,-8.294559
10.467384,2.946021,4.269463,-11.108295,-4.571143,3.033562,-7.764524
10.500582,13.653871,-0.060007,-25.264219,-4.16591,3.757534,-8.078923
10.534083,15.097627,-3.164948,-20.704897,-3.431462,3.817242,-8.098377
10.566985,8.349478,-5.092649,-8.758003,-4.186112,3.448522,-7.954121
10.600157,0.246761,0.170144,-5.908801,-3.709948,3.709499,-8.060517
10.633318,-1.158685,-0.172389,-7.61099,-3.899396,3.61687,-7.846528
10.667388,-3.050172,0.429475,-8.925902,-4.515476,3.515711,-8.180381
10.700742,-3.37789,2.004018,-11.689209,-4.498716,3.256979,-7.987043
10.734145,-1.709072,3.127837,-12.244983,-4.197634,3.319829,-8.342594
10.767454,-2.081234,2.870152,-11.8607,-5.005557,2.674269,-11.519963
10.800717,-3.462887,3.019645,-12.041918,-5.266833,2.666488,-8.591899
10.834108,-4.228311,3.991726,-11.846185,-12.308432,-1.659391,-10.523042
10.867363,-2.927914,4.108746,-11.273052,-7.74926,2.666787,-12.906704
10.900415,0.314101,4.783337,-10.831156,-50.368319,3.120355,-42.294035
10.934074,-1.034033,3.038799,-6.333488,-2.403864,-12.594848,-11.515773
10.967346,-2.377677,3.000042,-6.804265,-3.67972,-17.567184,-12.790731
11.000636,-2.400423,4.169501,-5.838768,-6.131919,-1.985912,-13.663748
11.034031,-2.79563,8.26897,-12.530053,-12.272218,3.705758,-19.2369
11.067471,-9.041726,17.585141,-1.302193,-7.672792,4.528196,-17.907771
11.10072,-1.155543,17.46393,-0.157873,-6.258966,9.177901,-15.970045
11.133849,4.935823,15.907943,-2.851297,-1.211809,18.811764,-15.330321
11.167385,12.685233,-0.846829,-14.337291,-6.418785,25.965446,-6.377483
11.200716,-2.834237,-1.054833,-11.171445,4.931783,24.246198,9.411943
11.234121,-1.891636,4.570395,-13.646389,9.42571,27.783158,30.861613
11.267404,-5.866303,4.140022,-14.630441,-12.889795,1.489097,-72.794111
11.30079,2.786801,1.14417,-8.93129,-4.781391,6.259415,-22.363989
11.33403,0.594082,2.501731,-10.073365,-6.997603,6.307151,-10.547583
11.367363,0.3144,2.351639,-10.203404,-4.167855,2.311086,-10.818138
11.400745,0.531083,1.049895,-8.347233,-5.20533,5.577193,-9.351936
11.434092,0.155629,1.999529,-9.233568,-2.41808,2.991512,-9.618749
11.467501,0.434413,2.178951,-9.543329,-3.366368,2.778121,-8.550598
11.500717,0.76288,0.653341,-8.466199,-3.940398,3.573474,-8.036574
11.534068,0.098764,2.054448,-9.449952,-4.882849,3.956859,-5.628221
11.567498,2.084676,2.687737,-9.917586,-5.131107,3.947731,-7.700177
11.600717,1.419363,3.071721,-9.549315,-3.838791,4.043652,-8.291267
11.634072,1.23231,3.897301,-11.688461,-4.616335,3.979904,-7.939606
11.66737,2.441275,2.119094,-13.087323,-4.394265,3.286309,-7.953523
11.700455,8.917822,-1.402304,-29.237089,-4.220081,4.05712,-8.188163
11.733101,7.293597,-2.850249,-11.734551,-4.22457,3.62929,-8.045703
11.767392,9.792186,-2.805805,-9.076743,-4.259736,3.599811,-7.949033
11.800717,6.425369,-3.630338,-4.860852,-4.158877,3.603701,-7.992729
11.834173,-0.111035,0.954572,-6.444374,-4.25794,3.486232,-8.007693
11.867383,-1.189512,2.464021,-10.036552,-4.089592,3.589635,-8.186816
11.900723,-3.64201,2.672922,-10.271941,-4.14062,3.500597,-8.480715
11.934091,-4.363139,3.050621,-12.263988,-4.00654,3.614027,-8.291117
11.967446,-0.064047,2.00746,-11.883595,-8.063211,0.991385,-15.402449
12.000755,1.18622,2.257364,-12.861512,-11.012973,-0.419748,-10.341525
12.034101,-2.545427,1.855872,-11.34937,-6.594166,0.612189,-10.369209
12.067574,-3.435054,2.307644,-10.74601,-20.84646,-12.772474,-46.655828
12.100717,-1.980674,2.82915,-11.552435,-4.245819,-14.685809,-2.128372
12.134027,0.575976,3.860189,-9.442021,-8.825043,-17.893705,-2.596754
12.16713,0.493822,4.160523,-6.212277,-14.103997,1.355765,-11.054723
12.200719,0.224764,5.420666,-4.557675,-10.466327,3.219119,-14.371559
12.234114,-0.061354,9.288637,-10.215525,-4.743681,2.93794,-12.525414
12.267409,-0.489632,6.792293,-7.656631,-9.317967,8.079372,-15.349326
12.300773,-2.691328,9.962629,-8.950444,-7.902644,7.168496,-12.900569
12.33403,-5.539034,18.346225,1.555538,-5.373978,16.896335,-13.709688
12.367404,-2.113108,11.47911,-5.435032,-2.319615,20.446763,-4.343686
12.400728,-4.02345,-2.768993,-23.536292,1.193103,26.758104,12.567613
12.434129,10.424128,4.829576,-13.338723,6.968872,30.564123,39.938505
12.467391,-4.674546,1.973192,-13.124435,9.906513,15.085655,-32.02823
12.500746,0.3774,3.185599,-11.772411,-11.89003,65.210206,-17.242309
12.534099,0.596776,3.187993,-10.65353,-2.156654,-2.214267,-5.754071
12.567456,0.935867,1.029543,-8.83911,-4.289665,2.98822,-9.858477
12.600742,0.113878,2.014942,-9.037536,-6.193871,4.469536,-9.751034
12.63407,1.024007,2.360767,-9.507265,-3.704561,2.382765,-8.558679
12.666973,0.877207,2.258112,-9.767794,-3.531873,2.390097,-7.421991
12.700746,1.182628,2.088118,-9.270381,-5.076787,3.649492,-8.196543
12.734076,0.702574,2.417631,-9.856532,-3.872759,3.573623,-8.186816
12.767382,0.893967,1.458869,-8.230063,-4.142416,3.295587,-8.055729
12.800716,0.470627,1.788084,-7.699429,-4.596582,3.366068,-8.039268
12.834059,2.125528,3.334793,-11.542559,-4.090939,3.454956,-8.120075
12.867385,0.943199,4.081212,-10.188141,-4.277843,3.360083,-8.055878
12.90076,2.279062,2.525524,-8.721191,-4.150796,3.397643,-8.031337
12.934048,0.271901,4.585958,-13.062034,-4.349821,3.299328,-8.037622
12.967382,18.026738,-1.328979,-28.337885,-4.63534,3.057804,-8.074284
13.000747,16.075094,-4.533583,-15.604916,-3.977958,3.293342,-8.009339
13.034049,9.629973,-2.48123,-11.869679,-4.008935,3.485484,-7.92105
13.067386,1.25326,-2.00327,-6.345609,-4.659432,3.090426,-8.057973
13.100871,-5.208173,1.296357,-10.87156,-4.215891,3.283615,-7.909677
13.134092,-4.603167,1.568258,-11.798299,-4.374961,3.164649,-8.167362
13.166849,-1.892834,1.517679,-11.524452,-4.213048,3.136666,-8.295457
13.200186,1.246975,2.711081,-12.280448,-4.291311,2.993158,-8.450786
13.233113,0.947988,2.220252,-11.129993,-6.342467,1.097481,-27.175907
13.267391,0.141113,3.488925,-14.26202,-9.765848,-1.146714,-13.427611
13.300716,-3.47037,3.94369,-8.927249,-7.943347,-4.042305,-19.620884
13.334054,-5.22224,3.262665,-3.831907,-23.308236,-32.899301,-4.37945
13.367382,-5.265337,7.406278,-13.112762,-2.140044,-14.778887,-24.164343
13.400693,-1.171555,10.574519,-7.490677,-13.191175,-6.878188,-10.728801
13.434042,-2.284749,10.007971,1.434926,-13.70475,0.060605,-12.581231
13.467382,-0.391167,15.530394,-6.011456,-12.323695,3.834152,-14.42992
13.50076,1.880563,13.31478,2.804309,-7.97133,8.303687,-15.454675
13.534135,-0.040853,1.141476,-14.863884,-7.758688,10.453009,-13.103934
13.56743,-19.670565,11.354009,-21.418545,-9.968465,24.070068,-7.533625
13.600716,4.699836,1.985463,-8.758901,0.257835,21.206201,2.237761
13.634138,-2.043823,4.775705,-11.712254,5.27656,27.878032,8.886397
13.667482,1.801402,3.705309,-9.813285,-1.487152,16.233417,9.631768
13.700748,1.230963,2.144683,-8.853176,5.890096,12.488003,14.931373
13.733812,0.38129,1.78524,-9.778568,-19.770976,9.541234,-55.4478
13.767478,0.633888,2.073153,-8.961218,-23.275614,25.743974,8.689916
13.800716,0.614733,2.02841,-9.27487,-1.909893,4.390973,-6.670783
13.834038,1.422506,2.888109,-10.13382,-1.468446,0.539014,-10.308304
13.867408,0.916862,1.652806,-9.351637,-3.142652,-0.588995,-8.573044
13.900725,1.381354,1.336012,-9.09874,-4.446341,2.45594,-8.986358
13.934049,1.079524,2.067018,-8.698146,-6.593268,4.009982,-9.281604
13.96742,1.156441,2.045469,-8.269269,-5.139038,3.468424,-4.537324
14.000721,1.900615,2.012698,-9.389796,-4.997027,3.83894,-9.048909
14.03405,2.549916,5.092948,-13.629031,-4.609601,2.767347,-8.346635
14.067477,1.95284,2.871199,-10.878593,-4.135682,3.239471,-8.344689
14.100751,-0.756744,1.691414,-1.074586,-3.551925,3.374897,-7.894114
14.134049,11.054124,3.661164,-28.419141,-4.074179,3.376394,-8.163472
14.167377,17.869164,-2.366154,-23.678003,-4.378852,3.231091,-8.131298
14.200765,7.89576,-5.12991,-2.743105,-4.422847,3.134272,-7.951877
14.23408,8.4659,-4.581169,-4.917866,-4.147354,3.292594,-8.029392
14.267192,2.048163,0.504746,-8.919019,-4.16157,3.270596,-8.051389
14.300717,-1.587562,1.901962,-10.548032,-4.539868,3.154024,-7.955318
14.333504,-1.405596,1.773568,-11.597628,-4.248064,3.201611,-8.460513
14.366697,-0.883492,2.175958,-13.100342,-4.57234,2.836482,-8.448392
14.400716,-3.29424,2.361964,-14.321279,-7.220871,0.88005,-22.629156
14.433105,-3.795843,3.842681,-13.531613,-9.834235,-0.848625,-11.720335
14.467383,-1.879964,4.938517,-11.421797,-12.357814,-9.449054,-21.262467
14.500723,-0.70841,5.653361,-11.45412,-14.287759,-5.772177,-8.705478
14.534051,-2.199751,8.24802,-9.240302,-1.371478,-15.214049,-1.769229
14.567475,-1.24039,10.589483,-8.531593,-10.850909,-3.919448,-4.868035
14.600717,-3.793748,10.375793,-3.022488,-12.170611,-4.859804,-8.533688
14.63405,-2.048462,14.129886,-8.158384,-13.11366,1.357112,-13.903625
14.667519,-0.995724,14.862089,4.783486,-8.734509,3.079502,-11.636834
14.700718,-5.319358,3.773995,-12.343149,-8.245476,6.235322,-12.6571
14.734061,0.589294,20.027613,-17.542792,-5.626276,8.635296,-11.497965
14.767384,1.045555,1.630958,-9.374083,-4.173691,16.491551,-6.306103
14.800742,2.124182,3.863482,-10.722516,-0.895014,18.287715,-1.462012
14.834049,-2.907862,3.875154,-10.475156,2.910705,18.763879,8.643227
14.867382,0.408825,2.048911,-9.398774,1.280495,28.216225,27.055594
14.900695,0.36902,2.295373,-10.081146,-11.540015,21.200515,-31.061087
14.933975,0.082304,1.05184,-8.268521,-8.305932,0.906537,-3.593077
14.967389,0.979413,2.089464,-9.434838,-11.657335,3.604749,-2.256915
15.000704,0.169695,2.432745,-9.806701,-3.937256,3.445978,-12.536787
15.034074,1.876971,2.201846,-9.844561,-2.140942,0.744773,-7.529435
15.067391,0.975672,2.709136,-10.329703,-3.211487,0.742828,-5.978385
15.100697,0.777395,1.993094,-9.196756,-6.945228,2.943028,-13.410552
15.134086,1.531596,2.385309,-9.685191,-6.061288,6.417887,-2.632219
15.167387,0.799991,1.845696,-8.860359,-5.046259,4.654195,-9.684443
15.201148,0.648403,2.047714,-8.847789,-3.812453,2.755974,-8.895675
15.234113,1.664179,3.017101,-10.28915,-3.845824,3.072918,-8.483408
15.266603,1.161678,1.042712,-8.546408,-4.212898,3.243361,-8.173498
15.299907,4.419704,1.690816,-8.714158,-4.186561,3.226302,-8.169308
15.333275,1.963166,8.581424,-14.837547,-4.384538,3.036854,-8.112294
15.366616,21.455357,-7.392661,-32.953023,-4.332463,3.104343,-8.180681
15.399859,10.043137,-7.444737,-9.381266,-4.545853,2.938539,-8.204923
15.433418,4.018063,-12.639442,-9.104576,-4.410576,3.01351,-8.069197
15.466569,-3.664456,2.071058,-15.490739,-4.536725,2.920132,-8.134142
15.500717,-1.305635,0.925841,-10.263112,-4.617532,2.865513,-8.201331
15.534062,-1.586664,3.182157,-12.447001,-5.720401,2.106374,-10.960448
15.567401,-1.734212,4.968295,-10.509723,-7.696286,0.782333,-11.616782
15.600729,-2.275471,7.846827,-5.161634,-8.738998,-0.265018,-12.546214
15.634051,-4.030333,12.832481,-4.351767,-14.668002,-5.997091,-11.536873
15.667423,-2.332934,15.650857,-11.624563,-7.551881,-5.36889,-17.174521
15.700827,-0.031575,14.74851,-10.33075,-6.117853,-10.893857,-6.520691
15.734082,0.973727,8.542068,-0.354354,-7.930178,-6.600002,-8.358756
15.767385,1.698447,13.86801,-12.157592,-13.463526,1.893133,-13.978148
15.800715,-4.590746,13.321814,-1.374321,-9.834235,3.896702,-13.991915
15.834071,-1.851233,3.253238,-11.351914,-7.713944,5.327588,-12.984518
15.867353,-9.969662,-3.704112,-21.955613,-6.918742,6.889711,-11.985353
15.900716,8.994439,5.69975,-16.539736,-4.407583,8.257747,-10.927676
15.933867,-3.393303,-0.298089,-6.009212,-2.853691,9.789193,-12.013635
15.967389,0.785775,3.423082,-10.625248,-2.856684,17.290195,-5.577791
16.000719,2.854738,5.391785,-9.771984,-0.345077,16.880024,-1.739749
16.034037,-0.018855,1.710718,-6.673178,2.364059,16.59675,3.548334
16.067384,1.918872,1.998033,-10.176469,-1.400808,8.905401,4.603915
16.100725,0.932425,5.171511,-10.498949,-3.037752,-23.290428,0.55757
16.134078,1.155543,2.689533,-9.367499,-15.485202,32.834805,-60.03286
16.167384,1.297105,3.921693,-9.877033,-30.710174,3.276881,8.707274
16.200723,0.896511,2.754328,-8.923508,-5.890695,1.456475,-9.60573
16.234106,1.584868,2.903073,-8.595341,-2.789045,-1.518726,-7.282823
16.267384,1.175146,3.13487,-9.281454,-3.408417,-0.13408,-7.035164
16.300715,1.338407,3.486531,-9.334278,-4.880605,4.956474,-10.006474
16.3341,1.213754,3.581554,-9.396829,-5.629119,3.772199,-7.380989
16.367416,1.353072,3.435054,-9.261103,-4.937768,2.7033,-6.959893
16.400779,1.236799,3.486681,-9.284597,-4.754605,3.268801,-8.828186
16.433796,1.225576,3.237076,-9.190022,-3.823078,2.356278,-7.912221
16.467385,1.16512,3.219418,-9.133457,-6.553762,2.259608,-8.378509
16.500725,1.276005,3.384923,-9.213816,-4.775705,1.779554,-7.994824
16.534081,1.301744,3.257278,-9.126424,-4.790669,3.738829,-7.849221
16.567428,1.204775,3.355145,-9.260803,-5.012291,3.729402,-8.608211
16.600737,1.204326,3.221064,-9.125227,-4.729615,3.21433,-7.710951
16.634067,1.286181,3.320876,-9.206782,-4.939265,3.334344,-7.782181
16.667377,1.305485,3.44523,-9.315423,-4.740539,3.266107,-7.704068
16.700718,1.219889,3.406771,-9.298663,-4.927593,3.146692,-7.674887
16.734053,1.303091,3.046581,-9.076892,-4.137927,3.689746,-7.857601
16.767394,1.22797,3.485334,-9.364506,-4.518319,3.404527,-8.190557
16.800735,1.196096,3.281071,-9.226984,-5.016929,3.191585,-7.98809
16.834137,1.24488,3.374748,-9.252872,-4.730812,3.306959,-7.864335
16.867373,1.274808,3.355593,-9.248832,-4.704325,3.119607,-7.933321
16.900475,1.106759,2.873893,-9.251526,-4.458612,3.382828,-7.935865
16.933623,0.852217,3.412009,-9.050405,-4.232651,3.646649,-7.881993
16.967413,0.997071,3.409166,-9.313178,-5.025309,3.087433,-7.796697
16.999872,1.702039,3.322522,-9.722302,-4.884196,3.16001,-7.827374
17.034069,1.00156,3.233634,-8.94775,-4.402047,3.291397,-7.909079
17.067403,1.272863,3.262366,-9.397577,-4.545405,3.232138,-7.838148
17.100746,1.22393,3.329855,-9.395632,-4.452177,3.328807,-7.843086
17.134049,1.212407,3.228247,-9.234317,-4.749517,3.336589,-7.871668
17.167384,1.193103,3.314891,-9.285345,-4.40055,3.497904,-7.92539
17.20071,1.185771,3.236777,-9.209925,-4.502906,3.467077,-7.918805
17.234036,1.184574,3.274337,-9.254518,-4.442001,3.552972,-7.919554
17.266694,1.250117,3.049125,-9.336074,-4.548248,3.440591,-7.88319
17.300715,0.774851,3.19338,-8.6965,-4.450531,3.524989,-7.912371