time_tick,acc_X_value,acc_Y_value,acc_Z_value,acc_A_value,acc_B_value,acc_C_value
0.024682,-0.828274,3.385073,-9.075845,-1.027149,3.456004,-9.50517
0.050752,-0.593634,3.445828,-9.234167,-1.253709,3.307259,-9.388598
0.084484,-0.446086,3.521697,-9.222495,-1.126512,3.233335,-9.215013
0.11782,-0.88424,3.369959,-9.08632,-1.007696,3.202209,-9.289535
0.150506,-0.413613,3.702316,-9.170868,-0.900252,3.272542,-9.280407
0.184481,-0.536021,3.490721,-9.232371,-0.963701,3.209841,-9.31662
0.217359,-0.647056,3.47022,-9.018831,-0.90953,3.296784,-9.354929
0.25016,-0.5028,3.649343,-9.102631,-0.97238,3.240069,-9.228331
0.28465,-0.59094,3.372802,-9.134505,-0.933922,3.290199,-9.252124
0.318771,-0.579717,3.561801,-9.054595,-0.990786,3.04254,-9.29582
0.351268,-0.583308,3.504937,-9.102481,-1.00605,3.491769,-9.273224
0.384528,-0.492325,3.60026,-9.171766,-1.055881,3.372802,-9.288787
0.418511,-0.538266,3.610735,-9.149619,-1.0897,3.32357,-9.323205
0.450783,-0.865385,3.607891,-8.939221,-1.013681,3.421287,-9.240901
0.484579,-0.625208,3.347064,-9.107569,-0.899504,3.13891,-9.284148
0.518011,-0.295994,3.561652,-8.977829,-0.866433,3.317285,-9.282053
0.55063,-0.630296,3.289302,-9.172664,-1.000662,3.329256,-9.247784
0.584823,-0.449976,3.611932,-9.184635,-1.08536,3.226601,-9.134804
0.618021,-0.225662,3.580357,-9.216509,-1.002159,3.67957,-9.348494
0.651171,-0.145902,3.500747,-9.169222,-1.240839,3.07621,-9.235663
0.684683,-0.587498,3.661314,-8.988753,-1.129954,3.304416,-9.282352
0.718125,-0.530634,3.477403,-9.147075,-0.973876,3.502393,-9.246587
0.7512,-0.552182,3.478301,-9.114004,-1.153747,3.141903,-9.29163
0.784909,-0.432019,3.450916,-9.122683,-1.126662,3.262964,-9.272476
0.817546,-0.505644,3.431163,-9.017783,-1.153897,3.395847,-9.206483
0.850305,-0.549938,3.149385,-8.804841,-1.368784,3.197271,-9.298813
0.884689,-0.558767,3.573174,-8.93518,-0.965496,3.316088,-9.331884
0.918447,-0.495318,3.391657,-9.17401,-1.1527,3.249347,-9.251526
0.951135,-0.514323,3.672537,-9.251974,-1.144619,3.335392,-9.284746
0.984601,-0.223716,3.475906,-9.265742,-1.100025,3.45331,-9.245839
1.017945,-0.162213,3.638868,-9.092904,-1.327932,3.271943,-9.24973
1.051359,-0.294348,3.532621,-9.134355,-1.201633,3.077856,-9.219203
1.084547,-0.174783,3.265508,-9.193913,-1.096135,3.277031,-9.179697
1.117936,-0.475266,3.656675,-9.122384,-1.115738,3.354097,-9.237908
1.150367,-0.509235,3.605497,-9.106522,-1.238894,3.11796,-9.265891
1.184934,-0.57837,3.44074,-9.100087,-1.147163,3.184103,-9.215312
1.217962,-0.240626,3.484436,-9.039631,-1.178139,3.320727,-9.192267
1.251837,-0.359442,3.511222,-9.062078,-1.032536,3.321026,-9.257511
1.284685,-0.508038,3.426225,-9.067465,-1.072042,3.249497,-9.249281
1.317934,-0.466287,3.582452,-9.09021,-1.151203,3.299627,-9.185982
1.351281,-0.556672,3.495659,-9.084075,-0.994377,3.427422,-9.248982
1.383956,-0.208902,3.622556,-9.133008,-1.140579,3.300375,-9.239704
1.417853,-0.448929,3.469771,-9.195409,-0.983753,3.62525,-9.326796
1.450925,-0.261875,3.742121,-9.085871,-1.242785,3.387318,-9.332482
1.484608,-0.366625,3.659668,-9.125227,-1.109453,3.350805,-9.245241
1.517915,-0.237034,3.277629,-9.025714,-0.857604,3.128435,-9.244642
1.551395,-0.359592,3.384475,-9.013593,-1.126362,3.048526,-9.226086
1.584601,-0.454466,3.637221,-9.078089,-1.05184,3.236927,-9.139293
1.618123,-0.497264,3.393752,-9.087517,-1.203129,3.40333,-9.272924
1.65108,-0.321433,3.331202,-9.103229,-1.207768,3.441788,-9.219502
1.685309,-0.328317,3.402432,-9.143334,-1.003655,3.44493,-9.287739
1.717949,-0.296892,3.536961,-9.208279,-1.016225,3.284363,-9.019878
1.75126,-0.410022,3.39465,-9.110412,-1.056479,3.734789,-9.361962
1.784621,-0.061054,3.395249,-9.09051,-1.054833,3.592778,-9.281304
1.817978,-0.456261,3.299028,-9.087966,-1.037175,3.455555,-9.37528
1.851313,-0.407777,3.443733,-9.063424,-0.831566,3.649941,-9.48003
1.884641,-0.274894,3.619713,-9.210523,-0.610094,3.586044,-9.162638
1.917941,-0.227308,3.553571,-9.171766,-1.059622,3.324617,-9.148571
1.951251,-0.096819,3.487728,-9.231773,-1.229915,3.328209,-9.095149
1.984644,-0.378896,3.501196,-9.06537,-0.943499,3.443883,-8.993691
2.017916,-0.586301,3.506284,-9.364057,-1.325388,3.07636,-9.36705
2.051173,-0.976869,5.093397,-9.889902,-1.221535,3.445678,-9.359867
2.084932,-3.635725,2.978643,-8.598633,-0.9851,3.278078,-9.416282
2.118115,-8.277649,3.240668,-9.193464,-1.273162,3.382978,-9.104127
2.151122,-6.311042,2.722604,-8.796761,-1.206721,3.199366,-9.288787
2.184601,0.398499,2.108918,-10.768157,-1.423254,3.288254,-9.187179
2.218086,-0.734148,0.562059,-9.729335,-1.566762,3.15148,-9.305098
2.251067,-1.000662,1.162426,-9.938087,-1.383748,3.318931,-9.147673
2.284713,-0.637778,2.206934,-10.747057,-1.220638,3.09716,-9.236711
2.317934,-1.14013,1.813673,-10.036104,-1.419962,3.393303,-9.205286
2.351377,-0.294797,2.096947,-9.97041,-1.504809,3.10958,-9.210673
2.384539,1.406644,1.926054,-10.182903,-1.40395,3.368912,-9.250777
2.417934,2.348496,2.25048,-10.141003,-1.270768,3.239171,-9.254518
2.451241,2.637457,2.167279,-8.665224,-1.266877,3.202509,-9.23716
2.484602,0.401043,2.200649,-8.70473,-1.21136,3.211787,-9.224739
2.51811,-1.998182,2.35553,-8.551645,-1.300696,3.174226,-9.123132
2.55102,-1.670614,4.947046,-10.584844,-1.223331,3.258924,-9.188825
2.584531,-0.697037,2.690431,-8.456173,-1.21525,3.350655,-9.150217
2.617851,0.095771,3.302021,-8.749623,-1.375368,3.540253,-9.255716
2.651343,0.290457,3.611633,-9.050106,-1.215101,3.517657,-9.241799
2.684543,-0.379345,2.703449,-8.655797,-1.310723,3.332997,-9.307941
2.717786,-1.56347,2.185835,-8.972142,-1.129954,3.596668,-9.334428
2.750391,-1.217495,2.009405,-8.906898,-0.936466,3.480695,-9.273224
2.784593,-1.019966,2.596155,-9.656908,-1.41667,3.967783,-9.16159
2.81794,-2.133908,3.588588,-9.653018,-0.965796,2.754927,-8.901062
2.850946,-1.806789,2.625186,-8.733462,-0.989888,3.337487,-9.132709
2.884686,-1.648916,2.848154,-8.558828,-0.987195,3.554319,-9.152612
2.917951,-1.856171,2.822116,-7.821388,-1.082218,3.486082,-9.184336
2.951321,-0.761234,3.64216,-9.514598,-0.930779,3.46588,-9.20364
2.984694,-0.293749,4.762985,-10.117958,-1.065607,3.316986,-9.209925
3.018068,0.566099,4.050086,-6.696821,-0.938261,3.451515,-9.219053
3.051362,-2.319615,8.046601,-3.649343,-0.978216,3.456004,-9.199151
3.08475,-0.973128,2.474196,-7.546643,-1.130702,3.749304,-9.235663
3.117937,0.601864,13.994159,-17.236473,-1.015477,3.202209,-9.240302
3.151244,-0.324426,0.728312,-6.43315,-1.239493,3.643207,-9.49679
3.185439,-0.816153,5.042219,-11.773009,-1.266728,3.464683,-9.655262
3.21802,-0.156078,3.895356,-8.919767,-0.921801,2.59406,-9.31692
3.251184,-0.524349,3.238423,-9.074199,-0.95562,4.114283,-9.433791
3.284644,-0.17164,3.44508,-9.240751,-0.574928,4.838106,-10.911066
3.317945,-0.118816,3.381182,-9.273822,-2.322309,4.268565,-11.058015
3.350751,-0.196481,3.434904,-9.19945,-5.057483,-0.598721,-9.947665
3.384601,-0.136025,3.421885,-9.296568,-4.314655,-0.819894,-10.564044
3.418018,-0.041152,3.471716,-9.360915,-0.833511,-2.194963,-10.319228
3.450527,-0.337295,3.429517,-9.166379,-0.355103,-1.14821,-12.200539
3.483725,0.013019,3.334344,-9.197504,-0.133332,0.564304,-11.017013
3.517931,-0.020651,3.424878,-8.99399,1.136987,1.595044,-10.111823
3.550494,-0.112083,3.140557,-9.098291,0.57433,2.50622,-11.248361
3.584604,-0.028881,3.49117,-9.20768,1.364893,3.533818,-9.612614
3.617936,-0.085147,3.350356,-9.241799,0.305272,3.38657,-7.416155
3.650386,0.014216,3.233186,-9.164134,-0.188999,5.563725,-7.27968
3.68464,0.158622,3.358137,-9.146177,-0.725619,10.927527,-12.863008
3.717953,0.080059,3.145944,-9.42167,-2.608426,7.30916,-4.534331
3.751352,0.233742,3.369061,-8.781497,-0.600368,9.533004,1.732416
3.784544,0.464791,3.022788,-10.022935,3.908823,33.622077,-0.706015
3.817932,0.112382,3.07217,-9.975947,-6.954656,12.94202,-42.024528
3.851365,-0.193788,3.298879,-9.385306,-1.447047,-2.582239,-11.524303
3.88518,-0.57852,5.173456,-10.868268,-2.040232,3.432959,-11.448583
3.91786,-2.733528,0.275642,-10.174224,-1.440463,3.48713,-9.909955
3.950459,-4.111141,0.451473,-12.075587,-1.291119,3.283466,-9.667234
3.984558,-5.613406,4.751912,-11.857557,-1.691265,3.325515,-9.410446
4.017939,-0.215486,1.888943,-8.110648,-1.7601,3.116015,-9.219352
4.051511,-0.155329,2.271131,-9.06118,-1.517379,2.90427,-9.135552
4.084684,0.36902,1.97394,-8.425796,-1.737953,3.202359,-9.256015
4.11788,0.128992,1.754564,-9.108317,-1.628714,3.313244,-9.194063
4.151433,0.845183,2.484372,-9.86985,-1.659241,3.192333,-9.198851
4.184848,1.254307,2.877484,-8.744685,-1.780751,3.260121,-9.16997
4.218177,0.948437,2.452947,-8.686324,-1.81472,3.261318,-9.168025
4.251209,1.369682,2.326649,-9.342508,-1.730321,3.235729,-9.199001
4.284599,0.587049,1.704284,-9.422268,-1.771772,3.112124,-9.09021
4.318198,-0.823784,2.433194,-9.460277,-1.577686,3.159561,-9.159794
4.35134,-0.44025,2.716319,-8.916325,-1.731519,3.263114,-9.138246
4.384602,-1.573645,3.374,-7.709156,-1.595343,3.342425,-9.239404
4.417944,-2.229381,6.127729,-9.871047,-1.754564,3.323719,-9.205436
4.451285,-0.810017,4.12835,-8.787034,-1.654452,3.089977,-9.088115
4.484839,-0.261127,2.40132,-8.480715,-1.854076,3.606994,-9.222644
4.517884,0.052375,2.2002,-8.63769,-1.478472,3.212235,-9.169671
4.550478,-0.09637,4.667064,-10.543393,-1.888644,3.367864,-9.154407
4.584758,-2.042327,7.193785,-8.687222,-1.713412,3.170784,-9.108018
4.618047,-3.712342,6.059342,-6.112316,-1.530099,3.295886,-9.164583
4.651209,-2.192718,5.689574,-7.821687,-1.480418,3.332698,-9.226236
4.684623,-2.987771,10.317881,-5.890395,-1.732865,3.243062,-9.139742
4.717917,-1.842554,11.342786,5.532,-1.727478,3.374149,-9.18269
4.750612,3.920795,10.866921,-6.290241,-1.565415,3.203107,-9.650773
4.784534,-0.992282,2.230129,-11.67215,-1.6555,3.205502,-9.636557
4.81788,0.064197,5.205779,-8.651158,-1.293214,3.481593,-9.463121
4.851324,-0.489183,3.65877,-10.4566,-2.202595,1.76429,-9.543778
4.884577,0.30183,3.318033,-8.940867,-2.683697,3.826969,-9.275618
4.917549,0.536919,3.528431,-9.572061,-1.941318,4.402346,-11.171744
4.950482,0.335649,3.370558,-9.177901,-2.536149,-0.211745,-13.442875
4.984516,0.300333,3.366966,-9.190621,-8.692459,-0.666959,-15.236046
5.017736,0.313502,3.15986,-9.070308,-6.786008,-2.637158,-13.39035
5.051143,0.51537,3.367715,-9.168773,-4.306275,-3.685556,-11.608103
5.08452,0.585702,3.204753,-9.272476,0.403587,0.695241,-10.941294
5.117857,0.636282,3.415002,-9.174609,1.767732,2.44756,-10.411408
5.150257,0.717688,3.325366,-9.143783,2.786052,2.804309,-11.594485
5.184568,0.807324,3.346316,-9.142137,3.217772,3.855401,-9.341311
5.21788,0.795053,3.444781,-9.293874,3.190088,5.272969,-6.396039
5.251364,0.513575,3.275684,-8.874874,1.254756,8.370428,-12.313669
5.28457,0.64137,3.396446,-9.254518,-1.25715,10.108231,-5.292272
5.317872,0.588396,3.347662,-9.242996,0.152037,11.268413,-5.912393
5.35135,0.78802,3.37804,-9.632965,0.755248,12.332823,-5.958932
5.384547,0.77126,3.352451,-9.627878,0.426333,17.23782,-1.300248
5.418016,0.800739,3.903885,-9.652868,0.282227,-6.109622,-7.917608
5.451277,0.96819,3.836546,-10.484134,-0.722177,-3.426973,-11.748168
5.484696,-0.712151,2.202744,-8.803495,-4.090789,3.112873,-12.797914
5.518028,-1.209714,3.255333,-8.212255,-0.895014,3.668497,-8.689167
5.550833,-0.182714,1.39138,-12.892338,-1.2362,1.875026,-9.037087
5.58461,-1.249818,-0.10475,-11.062953,-1.258048,3.433707,-9.273972
5.618175,-2.390396,0.726666,-11.065797,-1.471289,3.159561,-9.279509
5.65197,-0.033221,1.328979,-8.728224,-1.456325,2.995852,-9.273822
5.684598,1.348582,1.201633,-8.616291,-1.300846,3.132625,-9.282651
5.717937,0.222968,1.822651,-9.002819,-1.507503,3.128735,-9.217557
5.751347,-1.119629,2.020629,-9.628027,-1.28663,3.148039,-9.303751
5.784596,-1.469494,4.498716,-10.830109,-1.464406,3.204903,-9.299561
5.817936,-1.914382,4.318845,-10.390159,-1.231711,3.129034,-9.307642
5.851028,0.000299,3.793748,-9.738763,-1.294112,3.165098,-9.364356
5.884595,-0.600816,4.204967,-8.887444,-1.463209,3.095664,-9.298513
5.917936,-1.393924,4.702979,-9.065519,-1.213604,3.154922,-9.223393
5.951022,-0.603959,4.098421,-8.81397,-1.356663,3.249646,-9.223542
5.984639,-1.078028,4.595685,-8.435373,-1.196545,3.236627,-9.232222
6.017854,-1.054534,3.638419,-8.184721,-1.217944,3.296185,-9.251974
6.050721,-0.723973,4.633095,-9.754027,-1.147013,3.372353,-9.304948
6.084606,0.069285,4.473726,-8.019814,-1.291718,3.078904,-9.285644
6.119991,-0.51567,5.463464,-7.321132,-1.041814,3.110778,-9.379021
6.151245,-0.559964,5.641389,-7.197227,-1.486852,3.204753,-9.265143
6.184544,-0.093826,6.30326,-7.069582,-1.135491,3.511072,-9.233419
6.21796,-0.747467,11.560516,-2.097246,-0.877506,3.446427,-9.326197
6.251271,2.189875,-0.714844,-11.740387,-1.194151,3.51212,-9.421221
6.284597,0.168947,10.778482,-7.131384,-1.262238,4.507844,-9.823012
6.31803,-2.019432,4.119072,-9.043971,-1.925905,2.827055,-9.625483
6.350495,-1.380307,4.409229,-9.732029,-1.9488,3.153725,-9.825107
6.384599,-0.201719,3.359035,-8.453779,0.072128,2.170571,-9.869252
6.418134,-0.252747,2.887061,-9.42975,-1.54222,2.593761,-11.922802
6.451215,-1.116187,2.111312,-8.951491,-3.257727,-0.799093,-12.823203
6.484599,-0.358395,2.94617,-8.894777,-5.773524,-0.736393,-12.424555
6.517939,-0.683569,2.793834,-8.927848,1.050643,-1.041964,-10.851358
6.550713,-0.018705,3.577364,-10.032213,-0.369169,0.970135,-10.265805
6.584642,-0.416905,2.915045,-9.042624,-3.952519,2.087369,-9.440824
6.617878,0.105498,3.452861,-9.596901,-0.332656,1.871734,-9.691476
6.65131,-0.038159,3.268501,-9.151115,2.416285,2.729936,-11.285772
6.684517,-0.374257,3.286907,-9.280556,3.946085,2.475543,-9.443667
6.717806,0.358096,3.000491,-9.076593,2.876137,2.019432,-8.589056
6.750684,0.141113,3.369061,-9.17835,-0.600218,7.042496,-13.597306
6.784522,-0.137223,3.200114,-9.139742,0.303027,4.878809,-4.532086
6.817861,0.261426,3.274487,-9.482275,1.920218,6.206142,-3.731048
6.851201,0.116422,3.644704,-9.343257,0.229552,10.54055,-7.779039
6.884556,0.414361,3.202509,-9.521781,1.656547,25.202715,-0.655286
6.917944,0.374556,3.179763,-9.804756,0.288512,20.580095,-15.621527
6.950721,0.587797,3.497305,-9.283998,-0.15099,-1.42924,-4.359099
6.984804,-0.461948,2.890653,-11.172043,-1.967954,3.559856,-11.131041
7.017849,-0.386827,3.282568,-10.352748,-0.072726,3.783273,-9.820618
7.051266,-0.297789,2.106224,-10.23438,-1.611655,2.985526,-9.14887
7.084804,1.008743,0.42753,-11.665715,-1.662533,3.49955,-9.571163
7.117862,2.055496,0.044594,-11.869828,-0.972978,3.470519,-9.217856
7.150227,-1.121574,-0.500107,-9.061479,-1.307131,3.35275,-9.384259
7.18461,-0.347022,1.058873,-9.639699,-1.173799,3.377142,-9.29567
7.217602,-0.391765,1.053935,-9.545724,-1.316559,3.325066,-9.212469
7.251236,-0.357347,2.783658,-9.814931,-1.13175,3.245157,-9.200797
7.284532,-1.061417,2.870601,-9.197205,-1.426696,3.344071,-9.248682
7.317878,-1.151353,2.644191,-9.276516,-1.199688,3.289451,-9.145129
7.351278,-0.296592,3.17258,-8.716103,-1.237398,3.308606,-9.282801
7.384554,0.436359,3.688549,-8.948349,-1.450639,3.381631,-9.138844
7.417932,1.579032,2.974303,-8.707424,-1.262837,3.442686,-9.267537
7.451271,-0.199324,3.28586,-9.130614,-1.452135,3.68825,-9.177752
7.484517,-2.25467,2.748642,-9.768542,-1.401705,3.510474,-9.098441
7.517868,-2.579695,3.532322,-10.910168,-1.39138,3.681067,-9.104127
7.551512,-1.402304,2.944075,-9.423316,-1.677348,2.874491,-8.917822
7.584517,-0.093377,2.635961,-8.827737,-1.228269,3.447923,-9.032299
7.617869,0.08799,2.663495,-8.821003,-1.270918,3.579908,-9.07345
7.650661,-0.555325,5.068556,-9.852791,-1.44166,3.465581,-9.098142
7.684517,-1.42475,4.527747,-6.572019,-1.394822,3.666103,-9.256164
7.71787,-0.790713,5.390289,-6.904825,-1.309825,3.644105,-9.138994
7.750705,-0.375005,6.582344,-8.142522,-1.523066,4.537174,-9.155155
7.784595,-1.104066,11.861598,2.166082,-1.301744,2.58179,-8.778953
7.817911,4.964105,9.363608,-24.806162,-1.562721,4.006091,-9.075994
7.851231,-1.072491,1.238744,-10.895204,-1.306832,4.028687,-9.323055
7.884531,0.712749,4.527298,-9.686388,-1.21555,3.727157,-9.576101
7.917972,-0.730108,3.201012,-9.649576,-1.510346,2.765102,-9.309886
7.950404,0.633588,2.722005,-9.155006,-2.352387,5.074542,-9.23701
7.984908,0.460751,3.033711,-9.480928,-1.764739,5.29317,-9.965472
8.017879,0.722775,3.141155,-9.538092,-0.607101,5.563126,-12.318907
8.051071,0.70826,3.106288,-9.266939,-2.370195,0.284172,-12.869293
8.084605,0.202916,3.124245,-9.463869,-9.456387,-3.286159,-21.387419
8.117855,0.274296,3.067531,-9.256613,-5.473939,-5.580036,-13.394091
8.151172,0.377998,2.950211,-9.209626,-0.003741,-1.052888,-10.070671
8.184513,0.426033,3.110628,-9.095448,-1.555838,0.251999,-9.505919
8.217928,0.454915,3.086685,-9.342658,-1.37896,2.523429,-13.004421
8.250708,0.515969,3.084889,-9.208877,-1.396019,4.285774,-12.733418
8.284692,0.552332,3.031168,-9.301656,-0.767818,5.43144,-11.460106
8.321275,0.342383,3.049574,-9.227882,1.29501,6.510366,-9.739511
8.350631,0.643614,3.291846,-9.275768,0.756445,7.983302,-10.863779
8.384516,0.310659,3.048376,-9.245091,-0.113429,14.173432,-13.002925
8.417892,0.703172,3.139958,-9.478384,3.772948,13.097948,-0.463893
8.451344,0.872119,3.102398,-9.564728,5.067209,20.233971,6.819528
8.484515,0.883342,3.43236,-9.877632,6.034501,11.065647,2.47689
8.517894,0.804181,3.067381,-10.528429,-5.568214,-3.031168,4.039312
8.551267,0.659476,3.216276,-11.362838,2.379323,3.698575,-13.471457
8.584545,0.919257,3.078155,-10.095212,6.842424,5.571357,-10.832054
8.617969,0.849373,1.9069,-10.952068,-3.290499,2.708388,-7.353305
8.651185,2.378126,1.865,-11.002198,-1.335713,3.488925,-9.23716
8.684615,-0.696289,-0.210248,-8.360851,-1.036128,3.906429,-9.69821
8.718102,-1.690067,1.381653,-8.76339,-1.459019,2.799969,-9.063275
8.751242,-1.734362,0.901898,-8.843599,-1.32434,3.297682,-8.999676
8.784552,-1.021762,1.759352,-9.891997,-1.636196,3.912714,-9.130015
8.81793,-1.311471,1.695155,-8.980073,-1.799756,3.707853,-9.184186
8.850826,-1.499871,2.685193,-9.670675,-1.444503,3.526486,-9.099638
8.884642,-1.387489,2.99226,-9.10278,-1.625871,3.294539,-8.949247
8.917852,-1.326734,3.671939,-9.634761,-1.478622,3.826819,-9.000125
8.95065,-1.166916,3.938153,-8.785388,-1.850634,3.870664,-8.917074
8.9846,-0.810765,5.391186,-9.618899,-1.662383,3.669544,-9.032598
9.017846,-0.729509,4.627558,-8.851231,-1.698896,4.023151,-9.021524
9.051196,0.344927,5.830987,-10.136364,-1.635448,3.849714,-9.010451
9.0846,1.027,3.796292,-8.159431,-1.731818,4.042305,-8.972142
9.11784,0.449078,4.24956,-8.295157,-1.609111,3.935161,-9.057439
9.151279,-0.080807,3.798088,-8.553441,-1.887895,3.050771,-8.45333
9.184583,-0.210548,3.949975,-8.224077,-1.619137,4.099169,-8.818459
9.217865,-0.103104,3.552075,-9.667533,-1.493287,4.021056,-8.958525
9.25134,-0.010625,3.367565,-10.30995,-1.529949,4.012227,-9.116398
9.284516,-1.770875,4.784684,-9.554852,-1.442558,3.822779,-8.96481
9.318024,-1.715207,3.609837,-8.257896,-1.350378,4.090939,-8.841953
9.350324,-2.881076,4.697741,-8.052437,-1.509149,4.187758,-8.859461
9.38454,0.312305,7.267859,-8.88505,-1.28648,4.274551,-9.027959
9.417935,2.260955,8.418763,1.58427,-1.298452,3.019346,-8.955532
9.451471,2.471204,2.656013,-2.493201,-1.167514,4.748769,-9.230276
9.484573,-5.806745,22.063506,-1.614947,-1.400957,3.898049,-8.995187
9.51789,-3.522445,2.890354,-9.123431,-0.626555,2.315874,-8.869637
9.551142,0.605006,3.325066,-9.510408,-4.661976,5.017079,-9.234466
9.584536,-0.474218,3.826669,-9.654963,-2.119992,7.086791,-11.008034
9.618028,0.065993,3.208494,-9.308689,-1.218243,6.08553,-9.743851
9.650637,0.183762,3.026529,-9.440076,-0.790264,3.74257,-8.836566
9.684561,-0.123455,3.060498,-9.077491,-6.992965,1.316259,-11.464296
9.717874,0.198127,3.423831,-9.478534,-0.854761,-4.494376,-9.799368
9.751004,0.283274,2.948714,-9.186581,2.730236,-0.27669,-13.10543
9.784031,0.374556,3.238722,-9.197654,0.893368,0.933173,-11.009381
9.817848,0.265018,3.387617,-9.196307,-1.455278,1.947603,-10.743316
9.850633,0.408376,3.364871,-9.283399,-2.006712,2.281456,-10.568832
9.88454,0.219975,3.280922,-9.285345,0.854162,2.294625,-10.949374
9.917885,0.274894,3.403778,-9.247635,0.836205,3.722668,-11.679632
9.951192,0.513874,3.324019,-9.139443,0.019903,3.422484,-8.539674
9.984612,0.42768,3.440441,-9.238507,-2.648531,3.978557,-7.662168
10.017849,0.306319,3.29005,-8.904504,1.625272,10.034906,-19.122423
10.051336,0.459553,3.26476,-9.096495,-1.677348,14.552777,-4.311213
10.084505,0.31006,3.103894,-9.209925,6.594166,13.393792,4.127452
10.118009,0.99318,3.619264,-9.930456,8.771321,35.180758,-0.736842
10.151591,0.501603,3.651587,-10.327907,-6.231432,5.119584,-27.233969
10.184614,0.204562,3.195625,-12.524217,0.769464,-2.121338,-4.659283
10.218023,0.575826,2.223993,-10.009168,0.417803,2.647034,-0.965646
10.250463,-2.708837,2.097844,-8.224077,-3.401085,5.665183,-7.224911
10.28479,0.343281,3.980353,-13.587729,-1.166467,3.249646,-9.00656
10.317001,0.044743,2.454294,-11.080911,-2.046068,3.329256,-9.146177
10.350776,-1.059771,-0.462546,-9.563232,-1.903009,3.136367,-9.055044
10.384632,-0.300932,1.411432,-9.574754,-1.575441,3.281819,-9.06926
10.417719,0.909231,0.517166,-8.969449,-1.529949,3.270147,-9.205136
10.451272,1.45438,1.744837,-9.281304,-1.502714,3.387617,-9.152462
10.484606,1.120377,2.614562,-8.600878,-1.998631,3.42009,-9.094849
10.519078,-0.412566,3.514215,-8.746181,-1.633502,3.536063,-9.155155
10.550682,-0.257536,4.321838,-9.35448,-1.930693,3.589934,-9.172514
10.584673,0.784877,4.234297,-9.544975,-1.53818,3.627944,-9.088115
10.617876,1.339753,4.070587,-8.950145,-1.782247,3.620461,-9.07779
10.650497,0.524349,3.324767,-9.187329,-1.700393,3.695283,-8.925753
10.684582,0.491876,3.049125,-9.662894,-1.627816,3.693637,-8.952689
10.717853,-0.987643,3.075761,-8.697996,-1.723587,3.760228,-8.996534
10.750434,-0.781884,3.385223,-9.666037,-1.518128,3.724314,-9.063574
10.784653,-0.117919,3.685855,-9.444715,-1.510795,3.554469,-9.087068
10.817504,0.334452,5.483965,-10.731794,-1.495232,3.693786,-9.063275
10.850716,-0.195583,5.880369,-9.935244,-1.47518,3.70905,-9.130315
10.884747,-0.199923,5.615801,-7.65274,-1.416819,3.715784,-9.079287
10.917858,0.505344,6.326904,-7.67399,-1.568108,4.364337,-9.141089
10.950226,-0.959062,13.988623,-0.562807,-1.523515,3.838192,-9.016137
10.9846,-0.425734,16.779464,5.5742,-1.60088,4.027939,-9.038733
11.017852,-3.42428,2.517593,-13.799923,-1.362349,3.641112,-9.39623
11.050646,-1.558681,3.593226,-10.487127,-2.137201,3.041942,-9.760312
11.085065,0.212343,3.333596,-9.912947,-2.441275,4.888835,-9.949011
11.117855,0.349716,3.218371,-9.704794,-0.935268,4.167107,-9.232072
11.150231,0.076168,3.345867,-9.034244,-1.966608,4.1493,-11.532533
11.1845,0.403587,3.284214,-9.395781,-3.251143,-2.195112,-14.7524
11.217852,0.673992,3.318332,-9.391741,-6.669736,-0.976121,-13.405015
11.251296,0.393112,3.277779,-9.166379,-0.000449,-0.128244,-7.80792
11.284514,0.257386,3.223159,-9.16593,-1.567211,2.25482,-10.224654
11.317923,0.592586,3.220316,-9.213965,-2.598101,3.326114,-10.23872
11.351283,0.662469,3.32342,-9.11954,0.129142,2.786052,-9.566674
11.384598,0.70841,3.190986,-9.374981,-0.181218,3.947431,-12.431438
11.417868,0.571786,3.34437,-9.132709,0.282676,3.219568,-9.665139
11.451274,0.573432,3.538307,-9.174459,2.192868,3.037901,-8.653253
11.48433,0.577173,3.354696,-9.278012,-0.061054,3.555516,-9.446959
11.517885,0.639275,3.437149,-9.179098,-1.155393,3.361579,-7.735493
11.551455,0.613087,3.287057,-9.189723,-0.105648,5.516138,-8.456772
11.584523,0.448779,3.346465,-9.167127,0.933024,9.087068,-6.744707
11.61787,0.609047,3.321624,-9.307492,0.910278,11.198231,-4.520564
11.651272,0.95996,3.426524,-9.713473,0.223417,16.586424,-3.625549
11.687443,0.782034,3.12634,-9.754326,4.485248,49.809553,0.304523
11.717819,0.753303,4.080015,-9.984177,-0.293151,-3.731347,-7.823633
11.750514,0.493223,2.622044,-9.492451,-4.635789,4.8405,-11.350118
11.784551,-0.7126,1.703535,-9.169671,0.382637,2.857881,-8.677495
11.81787,0.909829,3.228098,-9.434988,-1.651011,3.454956,-9.301806
11.851421,-0.667856,-0.644961,-13.605088,-1.322544,2.416584,-9.059534
11.884607,0.907884,-0.971482,-11.281432,-0.658429,3.936956,-9.194961
11.917165,0.426333,-0.713348,-10.032512,-1.147013,3.027576,-9.19107
11.951278,-0.333255,0.771559,-9.147075,-0.992731,3.485783,-9.179098
11.984515,-0.271003,1.798708,-10.054659,-1.463807,3.362327,-9.323504
12.017865,-0.303027,1.85647,-10.036552,-1.138035,3.439393,-9.179847
12.050554,-0.072128,2.716468,-9.591215,-1.245778,3.290948,-9.128519
12.084513,-0.04624,3.787014,-9.66888,-1.153298,3.456602,-9.233868
12.117861,-1.041066,4.053378,-10.627642,-1.072192,3.428021,-9.216359
12.150654,1.170956,5.567167,-11.26557,-1.218842,3.662661,-9.164284
12.184535,-0.031575,3.842681,-7.31335,-1.097332,3.452263,-9.163835
12.217907,1.678246,4.993884,-9.144232,-1.042562,3.529927,-9.199899
12.250307,0.687909,5.260548,-8.783143,-1.319402,3.545939,-9.156951
12.284632,0.061354,5.535143,-8.187714,-1.084014,3.405724,-9.073002
12.317855,-0.589593,4.703727,-7.902794,-1.164222,3.525737,-9.280407
12.351201,-0.264718,4.716895,-7.702272,-1.061118,3.480695,-9.233568
12.384603,-0.595579,6.472057,-7.966242,-1.081919,3.532172,-9.205286
12.417794,-0.666809,5.83817,-5.803153,-0.756146,3.597416,-9.121336
12.451472,0.167002,9.137647,-1.644726,-0.899953,3.633929,-9.19945
12.484387,2.174911,10.896102,-4.45921,-0.818846,3.721022,-9.391442
12.518167,-1.650262,2.968617,-10.878593,-0.475116,3.902538,-9.520733
12.551287,-0.392962,4.221128,-6.935801,-1.047052,2.874791,-9.802062
12.584552,0.447582,3.198019,-10.474707,-1.768331,3.267753,-10.227646
12.618003,0.637928,3.054213,-9.364356,-0.21773,3.605348,-8.667918
12.651264,0.489482,3.284363,-9.219352,-0.996023,7.19169,-10.688098
12.684534,0.570738,3.355743,-9.268734,-3.369061,1.624673,-12.031891
12.717287,0.635983,3.549231,-9.155155,-5.034438,0.757642,-19.463011
12.751248,0.673693,3.412607,-9.126873,-4.495424,-2.093804,-11.016564
12.784511,0.650648,3.400486,-8.96885,-0.293749,0.386079,-8.730918
12.817851,1.012335,3.624502,-9.147524,-3.308606,1.126362,-11.756848
12.851004,0.713797,3.450766,-9.152312,-4.323334,2.258112,-11.886439
12.884685,0.870922,3.465731,-9.224141,-0.015862,2.099191,-9.86581
12.917858,1.019218,3.442237,-9.150068,0.169994,2.51879,-10.691689
12.951282,0.939758,3.4997,-9.269932,1.153149,3.186347,-11.501557
12.984696,0.901299,3.683162,-9.098291,1.203429,2.346102,-6.614518
13.017855,0.93452,3.566141,-8.951641,0.255889,3.454208,-4.029286
13.051206,0.929582,3.614027,-9.296119,-3.592778,9.063275,-9.412541
13.084822,0.91357,3.464234,-9.174759,-6.828507,17.489819,1.334217
13.1179,1.21121,3.631086,-9.293575,0.769314,17.717426,-5.787291
13.151205,0.936166,3.887873,-10.00827,5.660095,13.739617,-5.064516
13.184605,0.64556,3.668946,-10.212383,8.837613,48.670171,2.160395
13.217977,0.868378,2.800418,-9.930456,-0.274894,-1.098679,-4.562613
13.250757,1.817713,3.615074,-10.19667,-2.61501,2.509213,-6.816236
13.284535,0.285369,3.828615,-8.586812,0.534525,2.40551,-9.105923
13.317851,1.045256,0.841891,-13.735427,-1.555538,3.392256,-9.465365
13.350678,2.068963,-2.077942,-12.372329,-0.365129,2.726046,-9.226834
13.384646,0.952777,-1.784941,-11.404139,-0.579717,3.610884,-9.234317
13.417705,-1.010688,-0.344927,-9.667982,-0.964898,3.281819,-9.338468
13.450523,-1.082816,2.487515,-10.085037,-1.051092,3.106887,-9.207381
13.484607,-0.051178,1.96152,-10.311147,-1.207469,3.35305,-9.327395
13.517795,0.795053,4.164414,-9.643889,-1.048698,3.364722,-9.220101
13.550402,0.14231,5.772626,-8.724034,-1.116486,3.30247,-9.314675
13.584528,-0.723374,5.832483,-9.399522,-1.138932,3.358886,-9.33338
13.618077,-1.483111,7.061052,-10.954013,-0.964,3.108084,-9.291331
13.650329,-0.333853,5.644382,-7.855058,-0.918658,3.256081,-9.230725
13.684684,0.116871,5.501922,-8.347832,-1.092992,3.341377,-9.204238
13.717944,-1.096733,4.915621,-8.733312,-1.024905,3.176321,-9.275917
13.7508,-1.632754,5.062271,-8.649961,-1.293963,3.198768,-9.202143
13.784656,0.23883,5.303795,-7.960406,-1.312818,3.306211,-9.259008
13.819738,0.272949,5.467504,-7.718733,-1.081619,3.230043,-9.221896
13.851286,0.66636,5.27252,-8.4659,-1.333618,3.337337,-9.282951
13.88467,0.064795,4.953182,-8.091044,-1.025503,3.356791,-9.243295
13.917873,0.141413,7.203063,-6.476547,-1.150006,3.190537,-9.266939
13.951156,0.28088,10.44418,-1.515883,-0.967142,3.426375,-9.171317
13.984606,1.888195,4.045148,-11.900355,-1.139381,3.288553,-9.213516
14.017854,0.500855,3.198019,-2.256017,-1.121724,3.245007,-9.432743
14.052105,-2.986724,3.068279,-11.3998,-1.322245,4.880754,-9.978491
14.084521,0.321882,5.152656,-9.484071,-1.041515,0.772158,-10.376242
14.117873,-0.107444,2.990315,-9.088564,-0.680426,3.414104,-10.144295
14.151351,0.432917,2.862819,-9.727839,0.48604,4.814612,-9.223393
14.184519,0.397901,3.072918,-9.051004,-2.124032,4.78199,-12.113297
14.217873,0.627902,2.939736,-9.427506,-1.453931,-2.475094,-15.169006
14.251268,0.371414,2.925969,-9.393237,-4.735301,-1.695155,-9.918783
14.284517,0.675638,2.9966,-9.20364,-0.556672,-2.363461,-9.921627
14.31787,0.551883,2.962032,-9.172813,0.133182,-0.889328,-8.766533
14.351261,0.713198,2.957842,-9.201246,-0.505195,3.235729,-12.486207
14.383569,0.589294,3.233934,-9.269333,-1.005152,3.102248,-10.105388
14.417869,1.015776,3.171832,-9.289834,1.719248,3.995018,-10.208941
14.451343,0.966993,3.173478,-9.243295,0.689854,4.472229,-8.517078
14.484593,0.820043,3.190986,-9.146775,0.81316,4.858458,-7.647054
14.517862,0.784728,3.221364,-9.207381,-1.239044,6.138503,-9.814482
14.551067,0.886485,3.287207,-9.364805,0.030826,8.47413,-9.010451
14.584585,0.791611,3.330004,-9.015239,0.811514,10.18829,-6.62604
14.617445,1.199837,3.457949,-9.447109,0.630146,10.399437,-7.253493
14.651254,1.121125,3.419491,-9.283549,0.498461,9.306445,-2.810295
14.684519,1.221535,3.69214,-9.697162,5.803453,33.932286,-2.949762
14.717873,1.222882,3.774145,-10.036552,-0.885288,-1.050793,-1.453632
14.751222,1.413527,3.217323,-9.926266,-2.511009,2.556799,-6.316279
14.784521,0.430074,2.629526,-9.654813,-0.303626,2.482128,-8.547755
14.817858,0.914318,4.283529,-9.46327,-1.544764,3.915857,-9.549465
14.850668,0.670849,5.410939,-7.766918,-0.763329,2.861323,-9.005363
14.884509,1.557185,2.151267,-11.804733,-1.339753,3.15986,-9.112657
14.917873,2.274423,0.126149,-11.969191,-0.935268,3.399738,-9.26215
14.951187,-0.305122,-0.172688,-9.441871,-0.979712,3.465431,-9.24973
14.984509,-0.175681,3.563747,-8.266276,-1.004703,3.523642,-9.218454
15.018,0.47377,5.023963,-7.974772,-0.973577,3.492367,-9.21187
15.051198,0.579417,4.353413,-7.777393,-1.088802,3.44912,-9.135253
15.084653,0.765124,4.449932,-8.779103,-1.220787,3.570181,-9.123581
15.117878,-0.868827,4.466094,-9.068363,-1.544914,3.693338,-9.084973
15.151213,0.626555,3.772199,-9.32096,-1.315511,3.870216,-9.099937
15.184538,0.687011,3.584098,-8.77207,-0.860597,3.505386,-8.918271
15.21829,0.856107,2.117448,-9.7443,-0.690901,3.467077,-9.126873
15.250611,0.930031,2.795929,-10.418142,-0.945594,3.580956,-9.039033
15.284536,0.496216,2.810295,-9.505919,-0.923896,3.572426,-9.224889
15.317953,0.964299,2.454444,-9.109664,-1.010688,3.526037,-9.018531
15.350382,0.093976,3.302769,-9.027211,-0.906088,3.653981,-8.99833
15.384536,1.259096,3.330154,-10.520947,-1.073688,4.323783,-9.148721
15.417915,0.030527,3.688998,-8.186517,-1.164821,3.902239,-9.163236
15.450698,0.07138,5.054041,-7.681472,-0.856706,4.018961,-9.021225
15.484344,0.901748,5.916134,-8.916475,-0.865684,4.011628,-9.081232
15.518557,1.218243,8.714607,-10.259969,-0.960408,3.945187,-8.842402
15.551258,0.597225,6.547029,-5.825301,-0.744623,4.151544,-8.997581
15.58454,-0.190645,9.757768,4.51383,-0.732502,4.215442,-8.967653
15.617928,3.303667,33.360052,1.394373,-0.91372,4.14481,-9.109514
15.65121,-0.105648,-2.680404,-8.444202,-0.757642,3.832206,-9.316321
15.683978,-1.55928,4.958718,-11.213045,-1.98232,4.063854,-9.931204
15.71707,0.742828,3.379237,-9.634761,-0.165505,2.217409,-8.437318
15.751193,0.457758,3.454058,-9.318865,-1.129206,10.247848,-10.395696
15.784933,0.721578,3.239919,-9.029306,-0.171042,5.984221,-11.718838
15.817851,0.290158,3.287656,-9.219801,-0.740433,2.592115,-11.806829
15.851454,0.544102,3.548334,-8.936228,-3.041792,-0.983753,-17.283461
15.884587,0.337146,3.58739,-9.031999,-1.267775,-1.09389,-14.411214
15.917851,0.587947,3.438496,-9.115949,-0.623263,0.407777,-9.415385
15.951206,0.504746,3.589036,-9.218155,-0.39416,0.031425,-9.202892
15.984699,0.46958,3.680169,-9.034543,-2.232673,1.83552,-10.718625
16.020248,0.484993,3.474859,-9.122833,-0.831267,3.085338,-12.610411
16.050741,0.427829,3.636773,-9.101883,0.909231,2.715571,-10.281967
16.084517,0.379345,3.511072,-9.232671,3.49102,2.897836,-9.197504
16.117972,0.392364,3.529927,-9.105624,0.759438,3.526785,-9.52642
16.151341,0.303326,3.737482,-9.21202,-2.274872,7.733248,-8.295606
16.184512,0.09652,3.81814,-9.343556,-0.442943,13.338574,-12.995293
16.217927,-0.178524,3.864529,-9.357922,-1.392428,17.537704,-3.875902
16.250964,-0.249604,4.406386,-9.922375,5.361407,21.70541,17.88757
16.284578,1.780302,3.724912,-10.588585,-13.218111,17.867667,-49.591972
16.31794,1.158536,2.677861,-9.924769,0.866433,-4.749517,-1.652806
16.351253,1.510795,3.118409,-9.55575,2.859677,2.218906,-18.925194
16.384538,0.370217,5.367543,-10.028771,-3.976312,6.360723,-10.673732
16.417963,1.295758,4.646413,-11.924897,-1.793171,2.925969,-9.120738
16.451039,-0.694044,0.320386,-10.742718,-1.758005,2.654965,-8.994888
16.484657,0.317991,-0.426632,-8.957028,-1.573496,2.904121,-9.311532
16.517851,0.929881,1.03927,-9.51774,-1.648916,3.504189,-9.383211
16.550811,1.823848,1.252063,-9.462073,-1.429838,2.918037,-9.1363
16.584612,1.239941,2.02407,-9.498885,-1.963914,3.349159,-9.304499
16.617879,-0.658728,3.112274,-8.980223,-1.526208,3.155521,-9.257811
16.651204,-2.060583,4.120867,-9.671124,-1.723737,3.13053,-9.201096
16.684539,-2.123583,5.298258,-10.478298,-1.694108,3.170934,-9.224291
16.71785,-1.326734,4.819101,-8.802896,-1.757257,3.060498,-9.235963
16.751283,-0.917311,4.550492,-8.507202,-1.529351,3.166594,-9.192417
16.784543,-1.18592,4.068492,-8.618386,-1.714459,3.080699,-9.192566
16.817876,-1.357112,5.296014,-9.298064,-1.498973,3.176471,-9.185533
16.851277,-0.122258,4.841847,-8.753364,-1.74334,3.271195,-9.246887
16.884518,0.178524,6.132967,-9.657208,-1.580379,3.200863,-9.143483
16.917896,-0.525097,4.031082,-8.156139,-1.720744,3.359335,-9.252423
16.951398,-0.396853,4.447239,-8.346635,-1.67211,3.258475,-9.183737
16.984522,-0.794305,5.216254,-8.054232,-1.543866,3.368762,-9.188676
17.017872,-0.541857,6.887317,-9.451748,-1.471589,3.339731,-9.240452
17.05034,-1.051391,5.629717,-7.140512,-1.475479,3.416797,-9.150517
17.084546,-2.330988,7.304671,-6.866666,-1.461712,3.550279,-9.183737
17.118603,-1.756958,16.470451,11.264822,-1.39153,3.545191,-9.242248
17.150964,6.393196,11.24043,-25.609146,-1.385694,3.469172,-9.302255
17.184522,-1.447796,-2.11221,-11.270059,-1.302941,3.07606,-9.610669
17.217844,-2.400722,3.556115,-10.193977,-1.603723,2.872696,-9.501429
17.251199,-0.263821,3.867672,-9.709732,-0.360789,3.59592,-8.990399
17.284649,0.776797,3.49955,-9.6813,-0.229403,3.758133,-8.529199
17.317883,0.097268,3.194129,-9.005513,-1.563769,7.493221,-10.421883
17.351031,-0.117769,3.170934,-9.377076,-1.42924,3.748257,-16.009401
17.384838,-0.019154,3.21433,-9.214713,-6.195817,-4.19509,-20.115304
17.417855,0.338642,3.332548,-9.239255,-4.884346,-3.012612,-11.377503
17.451201,0.190346,3.218221,-9.216509,-0.332207,0.341635,-11.077319
17.486257,0.137672,3.440291,-9.209027,-2.374534,1.493137,-10.614174
17.51785,0.309312,3.332548,-9.243594,-1.74364,2.888259,-12.715311
17.550724,0.413613,3.238273,-9.213367,0.047586,3.141903,-10.323119
17.585221,0.476014,3.386719,-9.368546,0.843687,3.395548,-10.667297
17.616936,0.472872,3.398691,-9.181044,0.59528,3.762323,-10.577811
17.650675,0.373958,3.412009,-9.286692,-0.928385,4.407583,-10.091022
17.684539,0.391167,3.195924,-9.096196,-1.530548,4.197634,-8.23126
17.717878,0.233742,3.163602,-9.355378,-1.94461,5.43563,-10.275832
17.751268,0.165206,3.359933,-9.297765,1.292765,10.102395,-14.766616
17.784522,0.691949,3.228098,-9.435736,4.359249,6.690835,-2.064624
17.817924,0.609346,3.108383,-9.608574,-0.661123,13.733033,-1.377314
17.851204,0.25155,3.181708,-9.574305,-1.97379,30.369737,19.149209
17.884695,0.447582,3.970327,-10.412156,-18.34847,5.128563,-46.341727
17.91812,-0.048335,3.040894,-10.290347,-0.46943,2.090512,-21.819139
17.950305,-0.181816,1.946406,-9.622041,0.929133,1.921415,-9.600044
17.984532,2.303304,2.745798,-9.779017,-2.216511,2.712877,-10.306808
18.017953,-0.274894,3.307558,-11.275147,-0.766022,2.050557,-9.820169
18.050415,2.789793,0.065843,-12.309629,-0.85925,2.467911,-9.474494
18.084542,0.438304,-2.312881,-9.578346,-1.45019,2.575056,-9.690728
18.117117,-2.550365,-0.08814,-8.462758,-1.818461,2.538244,-9.418078
18.151183,-1.807986,1.210163,-10.072916,0.123156,1.61345,-8.76339
18.184537,-1.265231,3.228098,-10.13801,-1.603723,2.560391,-9.568469
18.2176,0.25978,4.046345,-8.658341,-0.51971,0.964748,-9.037237
18.250311,-0.223866,4.999571,-8.181878,-0.637778,1.933387,-8.000361
18.284543,0.08799,6.162147,-9.788145,-2.38486,6.075354,-12.256206
18.317882,-0.667707,6.365661,-9.213217,-1.244281,3.095215,-9.629973
18.351381,-0.294497,4.592841,-8.887145,-1.101073,2.884966,-9.243295
18.384518,-0.688358,4.218135,-9.679055,-1.47937,3.081597,-9.221447
18.41787,-0.410471,3.099405,-9.596453,-0.932575,2.843366,-9.384109
18.451346,-1.014878,4.118024,-9.729335,-1.723887,3.183654,-9.194661
18.4843,-1.49613,3.518854,-8.969449,-1.086408,3.296484,-9.238806
18.517871,-1.397216,3.615224,-8.668816,-1.47114,3.280323,-9.409548
18.551204,-0.044145,3.77175,-8.339751,-1.42924,3.305762,-9.324701
18.584657,-0.115075,4.152442,-7.684465,-1.273761,3.375197,-9.255865
18.61787,-0.718585,6.532962,-8.994888,-1.252511,3.252489,-9.267537
18.651198,-0.088589,5.558038,-7.09981,-1.159434,3.17243,-9.1155
18.68453,-1.843451,8.317754,-7.348516,-1.233956,3.142203,-9.219053
18.717269,0.11298,14.499803,3.522296,-1.406494,3.488925,-9.146027
18.751101,5.054041,2.523728,-29.494475,-1.654303,3.366667,-9.285494
18.784577,3.645901,0.131237,-10.891163,-1.308478,3.994868,-9.952004
18.817875,-3.395698,4.941809,-11.007586,-1.769079,3.756637,-9.913845
18.851183,-1.820556,3.79689,-10.337784,-2.064474,1.22363,-10.20101
18.884543,0.41915,2.851446,-8.966306,-0.814058,1.416221,-9.367648
18.917883,0.200222,3.311449,-9.734274,-3.600409,7.37216,-13.762662
18.950646,-0.007632,3.071272,-9.293426,-5.086663,2.934349,-15.028342
18.984606,0.064197,3.023685,-9.329041,-7.775148,-1.79362,-12.905657
19.017856,0.241374,2.789345,-9.011798,0.59932,-3.286608,-6.317177
19.050674,0.233443,3.46588,-9.421819,-2.948415,-0.251251,-11.3368
19.084604,0.536021,3.710846,-9.184186,-2.827653,-0.052076,-9.832589
19.117872,0.388623,3.597267,-9.246438,-0.961905,2.563084,-13.466219
19.150702,0.456411,3.328508,-9.11984,1.346487,3.299627,-11.59254
19.18454,0.421843,3.539056,-9.078389,6.301464,3.294389,-10.999206
19.21729,0.50729,3.510175,-9.222495,2.734725,3.747508,-10.233782
19.251179,0.52405,3.362178,-9.175657,0.232096,3.639616,-7.419447
19.284539,0.593783,3.531274,-9.112208,-5.653361,6.718968,-10.208193
19.317467,0.508487,3.422933,-9.338917,-4.482854,6.045425,-9.961581
19.351181,0.533028,3.381332,-9.2204,-2.744302,10.57392,-15.102116
19.384549,0.534674,3.527084,-9.146626,-1.430886,12.867198,-9.071206
19.417954,0.891423,3.498054,-9.515047,2.553807,14.871217,9.147673
19.450928,0.118368,4.400999,-10.703212,11.362539,29.653845,18.108592
19.484611,0.718286,2.0745,-10.311297,-7.111332,4.99987,4.355807
19.517878,-0.130489,2.761361,-10.366216,0.383086,3.727606,-8.784041
19.551302,2.070759,4.382144,-8.98561,1.983667,2.883919,-9.215462
19.584518,1.036577,4.037965,-9.797423,-0.667408,2.108768,-10.36442
19.617845,0.401791,2.521184,-12.538583,-0.230151,4.384239,-11.261081
19.650557,0.313203,-0.207704,-9.7024,-1.615545,3.675829,-10.638416
19.684523,0.209949,1.818461,-7.801635,-1.280046,3.049873,-9.246438
19.717072,1.594146,3.703663,-7.679227,-1.888644,3.670442,-9.489757
19.75161,1.986061,2.884218,-7.918357,-1.709371,3.332548,-9.310036
19.784516,1.963166,3.301423,-8.617039,-1.254756,3.208644,-9.266191
19.817957,0.367373,3.160908,-9.090809,-1.619735,3.297382,-9.293126
19.851063,-0.448779,4.029585,-9.243894,-1.425948,3.448821,-9.088265
19.884517,-0.888729,3.555965,-9.070907,-1.857219,3.222711,-9.555899
19.917969,0.001048,3.046431,-10.155519,-0.940656,2.715271,-9.187029
19.951167,0.016461,3.539205,-10.006025,-1.316259,3.067531,-9.661098
19.984491,-0.533477,3.249796,-10.512567,-1.522916,2.327846,-8.306979
20.017825,-0.103403,3.669245,-10.758131,-1.006498,3.043438,-9.389047
20.05116,-0.626555,3.312945,-9.077042,-1.086557,2.729038,-9.096346
20.084496,0.634037,3.332997,-9.30405,-2.140792,2.452349,-9.220549
20.117824,-0.134679,3.772499,-9.277563,-1.229466,3.468275,-9.892147
20.151209,-0.437855,3.837593,-8.369231,-2.088118,3.432809,-9.69806
20.184493,-1.57574,5.606523,-10.033859,-1.309825,2.977745,-9.229678
20.217831,-1.510197,4.821945,-9.146177,-1.386891,2.627132,-9.078089
20.250732,-0.966245,6.567979,-8.151051,-1.223481,3.22286,-9.414487
20.284882,-1.208516,6.76865,-6.786607,-1.553294,3.007075,-9.48871
20.31784,-1.20268,9.095897,-5.177796,-1.230215,2.977446,-9.391591
20.35124,1.018021,14.663063,7.875708,-1.273761,3.010966,-9.649127
20.384529,6.486274,9.701801,-20.195064,-1.339454,3.107635,-9.389945
20.417356,-2.823313,0.837552,-14.411963,-1.05603,4.814612,-10.556262
20.45127,0.281329,4.53882,-7.691797,-2.180896,1.606267,-10.042987
20.484549,0.785925,3.478151,-11.853367,-1.626469,1.783145,-9.246887
20.518123,0.391915,3.328508,-8.320148,-0.151888,3.213732,-9.225787
20.550559,0.601116,3.141155,-9.889304,-0.839796,5.165974,-11.406983
20.584614,0.437257,3.148787,-9.606928,-3.062144,4.538371,-16.688032
20.617932,0.604408,3.435203,-9.18688,-8.880411,0.464192,-13.37374
20.651212,0.707213,3.236777,-9.34206,-4.098122,-2.714673,-10.203704
20.684661,0.643465,3.221364,-9.347596,-1.628115,-1.494334,-8.622726
20.717908,0.6915,3.224057,-9.294323,-2.263499,-0.807623,-10.549977
20.75047,0.677284,3.291097,-9.273074,-0.912223,0.809419,-12.311275
20.784586,0.672495,3.329556,-9.206932,0.866582,1.009042,-11.412819
20.817854,0.854312,3.205352,-9.254069,1.263735,2.824511,-12.507756
20.851376,0.657381,3.121103,-9.183887,-0.713049,4.497668,-12.625675
20.884549,0.598273,3.190238,-9.243295,-1.681837,6.086278,-11.226812
20.917942,0.686562,3.180511,-9.279209,-1.765039,12.025756,-9.702849
20.951268,0.849224,3.234532,-9.374831,2.400123,15.712509,3.157317
20.984549,0.708709,3.121702,-9.647181,0.072427,30.333972,2.339518
21.018027,1.534139,3.640065,-11.16082,1.734062,19.27865,-8.377611
21.050333,0.389521,2.854439,-10.734936,0.624161,-5.505065,-11.496319
21.084534,-0.561311,1.949548,-9.800266,0.416606,2.176407,-6.90258
21.117611,0.764975,4.222774,-8.787183,3.09716,10.062141,-12.801954
21.151186,0.841442,4.90365,-10.543992,-1.423404,3.156718,-9.497688
21.184537,1.732416,2.991512,-12.609214,-0.621318,2.871199,-8.930392
21.217854,1.753815,0.463594,-11.884493,-0.817649,3.475158,-9.445912
21.251363,1.207918,-1.494334,-9.118942,-0.665612,3.395847,-9.240153
21.284633,0.101458,0.406131,-9.186431,-0.597824,3.462738,-9.221747
21.317931,-0.33954,1.435974,-9.731131,-0.810616,3.594723,-9.492451
21.350287,0.236885,3.177818,-10.611181,-0.800141,3.34048,-9.111609
21.384521,-1.426097,3.287656,-8.962266,-0.865984,3.422185,-9.177153
21.416913,-0.988242,4.45098,-10.302468,-0.971332,3.505536,-9.148422
21.451386,-0.007931,5.09639,-9.80281,-1.054683,3.522146,-9.130315
21.483762,-0.897708,4.090191,-8.698296,-0.949634,3.356641,-9.191369
21.517872,0.258284,3.995018,-9.63087,-0.971332,3.439094,-9.14049
21.551311,1.137586,5.242741,-8.58322,-0.682671,3.684359,-9.153659
21.586171,1.491192,5.744194,-8.360551,-0.918359,3.561053,-9.222196
21.617859,2.002073,4.543758,-9.129716,-1.08117,3.814099,-9.164583
21.651293,0.764526,4.265423,-7.521354,-0.722775,3.764119,-9.147524
21.685272,-0.622964,4.649107,-9.008805,-0.871371,3.552075,-9.142885
21.71787,0.111933,4.567851,-10.163001,-0.686412,3.611483,-9.286392
21.751259,-1.36639,3.45331,-7.990335,-0.664115,4.32109,-9.453992
21.784515,-0.56984,3.496856,-8.402451,-0.555774,2.886313,-8.843449
21.81789,0.764227,4.978172,-8.07623,-0.806725,3.802577,-9.119092
21.851089,1.554192,5.550407,-5.802106,-0.705566,3.702167,-8.958824
21.884515,0.445786,13.815785,8.29815,-0.763478,3.934861,-9.235514
21.91856,-0.058061,3.869318,-34.333928,-1.011586,3.843429,-9.512652
21.951052,-2.442023,2.760912,-13.689486,-1.138334,3.413505,-9.751034
21.984531,-0.303177,2.119543,-7.263519,-1.481316,1.924708,-9.815679
22.017937,0.191842,5.765892,-13.601197,-1.318354,3.599511,-9.046066
22.051249,0.651545,2.705993,-8.354117,-0.353457,5.90087,-10.16749
22.08452,0.502501,3.156269,-8.910489,-0.779939,5.340308,-9.390095
22.11762,0.599021,3.318632,-9.516543,-3.412308,1.694706,-19.931842
22.150375,0.765723,3.203556,-9.30405,-4.976227,-0.847727,-13.431502
22.184543,0.537966,3.1642,-9.218454,0.09652,-1.07698,-9.851743
22.217856,0.814507,3.145794,-9.223093,-1.640236,0.087092,-8.259542
22.250294,0.573282,3.26895,-9.118792,-3.114219,1.986211,-11.109492
22.284819,0.698683,3.111077,-9.192566,-2.214566,2.111312,-10.010515
22.317784,0.672196,3.121253,-9.224889,-1.765787,2.877784,-10.374596
22.350214,0.862841,3.190537,-9.225188,-1.289473,3.772349,-11.473125
22.384603,0.753602,3.133972,-9.143034,-1.717751,5.169416,-12.176297
22.417714,0.835008,3.285261,-9.298663,-1.538329,7.52719,-11.23205
22.450206,0.5869,3.244558,-9.223393,-3.588588,6.706099,-7.435159
22.484668,0.765573,3.248898,-9.307642,1.087455,13.044376,-7.56924
22.517851,0.944846,3.411111,-9.519536,1.83552,12.990654,0.967591
22.5503,1.236051,3.374897,-9.934346,3.122599,24.083536,8.498373
22.584703,1.031938,3.181259,-10.067977,-18.701478,17.052412,-37.337711
22.617228,1.01443,3.312197,-10.385819,2.823613,-1.854076,-11.023148
22.651235,0.14665,3.595022,-10.6242,4.570245,5.673413,-10.79599
22.68454,0.059708,3.517208,-8.569902,-3.078455,2.377826,-9.204987
22.717881,3.238872,5.593354,-9.437831,-0.720082,2.937042,-9.733226
22.750421,0.144256,5.168817,-7.729357,-0.505943,3.17692,-8.821601
22.784023,0.553978,3.041493,-11.504999,-1.51723,3.296484,-9.177452
22.817877,2.138248,3.495809,-11.407132,-1.162576,3.184552,-9.335026
22.85126,0.689106,0.983902,-7.886483,-1.433131,3.10135,-9.172364
22.884518,1.177989,1.859014,-8.645771,-1.564218,3.349608,-9.129267
22.917873,0.721878,2.304352,-7.904739,-1.625422,3.695133,-9.328442
22.950262,0.863889,3.491619,-9.72724,-1.845846,3.063041,-8.8433
22.984516,0.6707,4.450681,-10.387465,-1.560177,3.728953,-9.544975
23.017871,0.763029,4.336653,-9.42167,-2.33024,3.613129,-8.947451
23.051184,1.490444,4.663922,-8.813521,-2.106823,3.515861,-8.800202
23.084592,1.629163,5.018725,-7.869872,-2.43095,3.631834,-8.688868
23.116975,-0.054021,5.374726,-7.952475,-1.601928,4.034673,-9.081082
23.151188,0.937962,5.681494,-9.504572,-1.68498,3.365021,-8.929943
23.184516,1.351425,4.548996,-8.284084,-1.358459,3.564196,-8.921862
23.217942,0.95966,4.097224,-9.070907,-1.850634,3.639316,-9.036638
23.251302,0.790115,4.79441,-9.963078,-1.684082,3.563447,-9.022123
23.284545,-0.373808,4.233549,-9.936591,-1.402454,3.514215,-9.19092
23.317976,-2.409251,4.987749,-8.264481,-1.423104,3.49955,-9.252723
23.351243,-1.116636,4.623817,-8.666571,-1.75202,3.301722,-8.958525
23.384232,-0.002544,5.187373,-8.253557,-1.361302,3.391059,-9.031401
23.417869,0.629249,5.914637,-8.123218,-1.422805,3.616571,-9.177003
23.45121,0.855509,5.95115,-7.076316,-1.47099,3.725361,-9.085572
23.484538,0.656933,6.552116,-6.244002,-1.619885,3.585595,-9.226685
23.517876,2.899631,12.499825,8.714906,-1.463807,3.645153,-9.302554
23.551241,1.777908,12.70304,-25.366275,-1.223181,3.504638,-9.43394
23.584518,-0.868378,1.040617,-4.459509,-1.639937,3.24396,-9.447558
23.617979,-0.948587,5.17585,-10.182454,-1.666274,2.977745,-9.467161
23.651193,0.536021,2.941382,-9.303901,-1.970498,3.966137,-8.808582
23.684617,1.13145,2.6192,-9.159495,-2.274423,4.902004,-8.743937
23.71788,0.225362,3.403629,-9.121486,-2.194663,6.643848,-10.103443
23.751751,0.55757,3.07636,-9.386952,-0.749711,6.446319,-10.667597
23.784523,0.53647,3.368612,-9.112807,-2.379472,3.481294,-16.866107
23.817846,0.730707,3.584098,-9.301955,-7.713046,1.154795,-18.073875
23.85018,1.012185,3.356491,-9.427655,-4.972934,0.067639,-12.659344
23.884538,0.430972,3.31504,-9.196457,-2.386057,0.356001,-10.26401
23.917915,0.778592,3.434755,-9.134505,-0.382936,-0.219975,-7.902494
23.951285,0.640322,3.364422,-8.978128,0.51971,2.347748,-11.104105
23.984636,0.836354,3.471118,-9.10712,1.490893,3.68795,-10.924534
24.01787,0.646757,3.317584,-9.108018,0.670101,5.953395,-12.125269
24.051433,0.920304,3.472165,-9.251675,0.110137,7.371112,-12.047005
24.084515,0.772158,3.308306,-9.205735,0.467485,9.614559,-9.667383
24.11702,0.811214,3.280173,-9.210673,-0.484544,11.726919,-8.123667
24.150389,0.659776,3.338534,-9.247186,-0.003741,11.514875,0.880798
24.184525,1.031938,3.365171,-9.616056,1.875475,23.815226,9.50098
24.217905,0.81316,4.144511,-10.710993,-0.965945,8.904504,-19.321299
24.251433,0.939608,3.358736,-10.74152,2.218307,-4.550941,5.400015
24.28454,-0.163709,1.836269,-9.996149,2.416584,5.996193,-3.719525
24.31794,2.177155,3.598015,-10.301121,3.923339,6.239961,-14.14485
24.350245,0.394608,6.405317,-8.36549,-1.950745,3.031317,-10.627044
24.384009,1.251763,4.549295,-9.105025,-1.082517,3.345118,-9.121935
24.417877,2.107422,3.18111,-12.963718,-0.655286,3.192932,-9.436484
24.451362,4.074329,2.67801,-10.947579,-0.954273,3.086835,-9.515645
24.484436,0.835157,0.351661,-8.919169,-0.951879,3.510773,-9.156502
24.517872,0.623413,0.587797,-8.757554,-0.940656,3.409315,-9.290433
24.55126,0.991833,1.768331,-10.894007,-0.912972,3.242014,-9.209326
24.584664,0.678481,2.46417,-11.219031,-1.157638,3.406921,-9.276516
24.617851,-1.134742,2.413292,-9.586576,-1.036726,3.531274,-9.235364
24.651399,-0.711552,3.042241,-10.08773,-0.938561,3.359185,-9.005064
24.684521,0.578071,3.96494,-11.346976,-1.123519,3.733891,-9.21187
24.717906,0.822737,3.908973,-9.721404,-0.940057,3.930971,-9.259307
24.750974,0.615781,4.054127,-8.441059,-1.328979,3.208045,-8.744685
24.784517,2.41419,3.836396,-9.380967,-0.885886,3.536212,-9.090659
24.818133,2.406558,6.133266,-10.432657,-1.025204,3.709349,-9.175507
24.851044,-0.00404,5.137093,-8.207916,-1.112895,3.785667,-9.195409
24.884543,-0.42768,7.056264,-10.172578,-0.917311,3.186796,-9.13241
24.917843,-0.85491,4.493029,-6.829106,-1.223181,4.145259,-9.259457
24.951333,-1.449741,4.003996,-6.933556,-1.399162,3.881738,-9.167725
24.984542,-0.277438,7.366024,-9.881971,-0.956518,3.852109,-9.066118
25.018082,-0.723075,8.194298,-0.010176,-0.994078,3.857496,-9.044719
25.051202,-0.594232,24.653825,2.310936,-0.871371,4.064153,-9.129118
25.084513,1.920069,3.824874,-5.212064,-0.877955,3.618067,-9.16563
25.117884,-0.583458,1.279746,-6.162446,-0.443093,1.97409,-8.995935
25.150194,-2.553507,6.58848,-11.78543,-2.092308,3.829662,-9.520584
25.184617,0.940207,2.546923,-9.312879,-1.168562,8.06366,-11.034072
25.217864,0.58271,3.350955,-9.276965,-2.792936,5.345695,-13.710736
25.25029,0.633289,3.364871,-9.156951,-10.971971,5.616549,-20.749341
25.285096,0.487986,3.567039,-9.144082,-4.119221,-8.477572,-13.701458
25.317851,0.910128,3.475457,-9.287739,1.926054,-1.80634,-11.25315
25.350784,0.600068,3.457051,-9.097244,-0.567446,-0.505195,-8.752766
25.384595,0.54485,3.710098,-9.084075,-2.865214,3.853156,-13.464723
25.417852,0.728163,3.519602,-9.128369,-3.001838,3.167492,-9.311383
25.45121,0.824533,3.608041,-8.940119,-2.115053,3.120953,-9.002819
25.484618,0.627154,3.329107,-9.140042,0.176878,4.493778,-11.762684
25.51732,0.588546,3.535764,-9.288637,-0.727115,4.913825,-9.540187
25.551279,0.389221,3.487579,-9.146327,0.57418,9.087966,-10.029519
25.584615,0.496665,3.617618,-9.328741,0.308863,9.053398,-9.864164
25.617772,0.173436,3.479199,-8.956729,-3.924686,14.983599,-7.60695
25.651256,0.436658,3.559856,-9.207979,1.728226,17.017845,-1.229018
25.684571,0.605156,3.964042,-9.742504,3.460493,22.504952,14.334597
25.717855,0.128394,3.684209,-10.073814,-12.414828,17.478296,-53.977408
25.751204,-0.284471,2.814485,-9.656459,1.287977,-2.970412,-5.090853
25.7846,0.823784,4.320342,-9.741606,1.137137,3.787912,-11.073279
25.817585,0.983005,4.80279,-9.195559,-2.744152,2.521334,-9.719609
25.851262,0.706165,5.54038,-8.738998,-0.634785,3.107037,-9.735172
25.884624,1.21555,5.052395,-11.502305,-1.61764,3.51646,-9.162638
25.917468,-0.417354,0.136624,-13.713878,-1.16078,3.177069,-9.469855
25.951185,1.677647,-0.954423,-9.90786,-1.539078,3.05107,-9.419275
25.984575,2.11655,1.00575,-9.126723,-1.635897,3.164948,-9.208578
26.017864,3.139958,1.382701,-9.416731,-1.39557,3.576616,-9.344155
26.051202,1.546709,1.778207,-9.275019,-1.542071,3.280173,-9.379919
26.084629,1.863055,2.067317,-10.003481,-1.471589,3.297981,-9.255267
26.117919,0.887981,3.058253,-10.040892,-1.734062,3.212535,-9.209177
26.151032,-0.452221,3.603253,-10.019344,-1.16108,3.429966,-9.298663
26.184601,-0.303626,3.85166,-10.458396,-1.156441,2.954401,-9.15321
26.218138,-0.534674,4.057419,-10.236026,-1.71401,3.307109,-9.313328
26.251389,0.053123,5.191263,-10.794045,-1.410085,2.993158,-9.095897
26.28452,-0.174035,4.855614,-9.243295,-1.513339,3.297382,-9.192267
26.317867,-0.201569,5.485611,-9.574455,-1.385245,3.279126,-9.223991
26.351272,0.671448,4.513381,-8.715654,-1.270618,3.299178,-9.216808
26.384423,2.104578,5.283743,-8.416817,-1.462161,3.326263,-9.244792
26.417058,1.128308,4.444396,-6.504979,-1.14821,3.538457,-9.189424
26.451205,1.344841,5.819764,-8.697098,-1.048698,3.447773,-9.158897
26.484609,-1.427594,5.254413,-7.723372,-1.08566,3.257727,-9.241499
26.518844,-3.041044,10.725509,-2.797874,-1.167065,3.559856,-9.183737
26.551241,0.338043,13.842272,18.164409,-1.213455,4.381695,-9.87
26.584535,7.145002,22.661778,-24.820976,-1.366839,3.795993,-9.957092
26.617933,-4.379301,4.717644,-8.516928,-1.959425,2.144832,-9.44247
26.651182,-3.596818,3.358736,-11.244171,-3.23962,2.170122,-9.867606
26.684536,-0.374556,2.909209,-10.206547,2.035892,4.656889,-11.990291
26.717933,-0.032323,2.810145,-9.242098,-2.633716,4.585658,-11.007586
26.751353,0.01691,2.993009,-10.128732,-9.137797,4.07373,-22.781942
26.78454,-0.355252,3.401384,-8.561522,-7.123304,-3.500747,-8.743637
26.817929,-0.022446,2.25901,-9.38366,-7.055815,-3.133523,-11.153936
26.851024,-0.547693,2.983132,-9.36286,-2.917289,2.811043,-10.541298
26.884503,-0.182564,2.909957,-9.258409,-2.749689,4.245969,-9.08198
26.916915,0.240776,2.654666,-9.327993,-1.733763,7.163857,-9.934047
26.951528,0.153534,3.322822,-8.927848,-3.332399,8.38629,-9.682198
26.984518,-0.14246,2.136752,-9.200647,-0.386977,10.312494,-6.34531
27.017985,-0.210697,2.664243,-9.357473,-0.816751,17.893855,-4.848581
27.051233,0.350464,3.397344,-9.340413,2.756722,18.327819,1.782696
27.084655,0.377998,3.222711,-9.259307,11.191497,19.091746,-22.418309
27.117941,-0.029629,3.829662,-9.619647,10.923935,6.40412,-8.8849
27.151181,0.255889,3.09701,-9.753278,-2.731582,0.973278,-13.357878
27.184535,0.221172,2.860275,-9.478384,-3.019795,7.836053,-10.85495
27.21801,-1.06441,2.055346,-8.822798,-1.855423,0.589892,-7.397749
27.251282,0.001496,3.858244,-8.91857,-0.69554,2.582388,-8.89343
27.284615,0.360041,3.81814,-9.529113,-1.171405,2.92522,-10.168538
27.317407,-0.682671,2.722155,-9.423016,-1.437321,3.153575,-9.203939
27.351185,-0.954872,3.33614,-9.23716,-1.408888,3.324917,-9.228032
27.384703,-0.344478,3.970476,-9.043971,-1.238295,3.124694,-9.445014
27.417465,-0.035914,2.582538,-9.541983,-1.094638,3.656376,-9.804456
27.451212,-0.103403,3.971225,-9.127771,-1.159882,2.557548,-8.999078
27.484119,0.032772,3.591131,-9.04831,-1.371927,3.544592,-9.415983
27.517819,-0.99348,2.545576,-11.170696,-1.343195,3.272093,-9.253172
27.551277,0.015413,3.6254,-8.837613,-1.216298,2.906216,-9.351038
27.584519,-0.288362,2.660352,-9.850247,-1.226773,2.937341,-9.223542
27.617872,0.006285,3.079203,-9.1363,-1.267326,3.45331,-9.558443
27.651004,-0.526893,2.286245,-10.832204,-1.293663,2.963828,-9.332782
27.684511,-0.936316,3.152079,-9.742953,-1.237098,2.575505,-9.108467
27.717941,-0.076916,3.536362,-9.081531,-1.232609,3.138761,-9.303751
27.751181,-0.266364,3.08878,-9.528964,-1.231711,3.147739,-9.348793
27.784536,-0.170892,3.42009,-9.076443,-1.319851,3.071571,-9.368247
27.817863,-0.155479,3.62959,-8.969,-1.975736,3.338384,-9.549764
27.851226,-0.140814,3.355444,-9.171467,-1.56332,2.535849,-9.478983
27.884541,-0.353457,3.139659,-9.259157,-1.172153,2.77049,-9.71467
27.9178,-0.056864,3.17677,-9.187628,-0.987195,2.841869,-9.474344
27.951256,-0.262773,3.280922,-9.162189,-1.140878,3.045833,-9.280706
27.984515,-0.000299,3.297532,-9.201096,-1.361751,3.069027,-9.391891
28.017598,-0.258583,3.267005,-9.210374,-1.044957,3.167642,-9.523277
28.050271,-0.313951,3.237824,-9.149918,-1.327333,2.865513,-9.289086
28.084516,-0.269208,2.948415,-9.328143,-1.022959,3.024284,-9.506966
28.117869,-0.176429,3.342724,-9.218454,-1.005152,2.807601,-9.374083
28.151023,0.000449,3.318482,-9.217407,-1.219889,3.111825,-9.383361
28.184512,-0.481252,3.226152,-9.321409,-1.119329,2.982085,-9.226535
28.2179,-0.25978,3.311598,-9.218604,-1.130552,3.052417,-9.298214
28.251202,-0.308264,3.312047,-9.318715,-1.189512,3.001389,-9.30824
28.284606,-0.191244,3.266406,-9.250628,-1.230364,3.10554,-9.325898
28.317852,-0.203365,3.276432,-9.055942,-1.116785,3.043438,-9.360466
28.35121,-0.18855,3.431612,-9.120139,-1.168711,3.17273,-9.425411
28.384542,-0.305721,3.106588,-9.146925,-1.054235,2.983581,-9.311532
28.418694,-0.208004,3.329256,-9.32111,-0.979563,3.060348,-9.238058
28.451238,-0.169396,3.123797,-9.328143,-1.12756,2.951857,-9.164882
28.484523,-0.408675,3.270447,-9.254069,-1.424152,3.312796,-9.475092
28.51742,-0.231348,3.180661,-9.551111,-1.185621,2.884218,-9.368995