time_tick,acc_X_value,acc_Y_value,acc_Z_value,acc_A_value,acc_B_value,acc_C_value
0.011541,1.404998,4.004894,-9.390394,-1.157787,3.641262,-9.277713
0.043418,1.248471,3.443733,-8.999228,-0.781735,3.661164,-8.842551
0.076734,1.486403,3.612231,-8.95628,-0.946342,3.732694,-9.08617
0.109987,1.436273,3.634229,-8.865746,-0.944247,3.664307,-9.014641
0.143443,1.364145,3.648295,-9.011798,-1.038223,3.631685,-8.963762
0.17725,1.316409,3.658321,-9.048011,-0.926888,3.62525,-8.997731
0.210022,1.359506,3.713988,-9.075845,-0.897558,3.651737,-9.024667
0.243358,1.382551,3.704411,-9.043971,-0.919406,3.595471,-9.014042
0.276762,1.389135,3.691093,-9.04442,-0.893069,3.709499,-9.051303
0.310006,1.400957,3.699473,-9.060282,-0.965945,3.644554,-9.008505
0.343362,1.395271,3.702765,-9.070607,-0.899204,3.672088,-8.999527
0.376711,1.358758,3.685406,-9.052201,-0.879751,3.664307,-9.004615
0.410003,1.34544,3.647098,-9.015688,-0.946043,3.685855,-9.053249
0.443397,1.368185,3.668497,-8.999078,-0.940057,3.72147,-9.016436
0.477152,1.354418,3.639765,-9.025565,-1.033883,3.644255,-8.980073
0.510024,1.344692,3.563298,-8.939071,-0.995874,3.542348,-8.95643
0.543361,1.350228,3.770404,-9.125377,-1.024755,3.653533,-9.042923
0.576932,1.352772,3.703364,-9.055044,-1.066356,3.764568,-9.11954
0.610025,1.555389,3.550578,-9.310485,-0.962503,3.772349,-9.151564
0.64339,1.404399,3.769955,-9.072104,-0.928983,3.602504,-8.954035
0.676682,1.437769,3.797938,-9.007308,-0.817799,3.620312,-9.104576
0.710029,1.391679,3.81395,-9.179697,-0.786823,3.757983,-9.141239
0.743403,1.166616,3.778035,-9.118643,-1.126512,3.572127,-8.963164
0.776696,1.241887,3.706656,-9.012995,-1.231861,3.612381,-8.963613
0.810025,1.275706,3.665055,-8.949247,-1.164372,3.668497,-8.979175
0.843338,1.562572,3.794197,-9.079137,-0.890675,3.735238,-9.130165
0.876743,1.536234,3.643058,-8.938622,-0.871221,3.477552,-8.973788
0.910035,1.434028,3.720872,-9.018831,-0.945743,3.338384,-8.895824
0.943348,1.960323,3.753045,-8.967952,-0.918957,3.690195,-9.046515
0.976679,1.577386,3.841185,-9.199151,-0.880499,3.639466,-9.012546
1.010025,1.285732,4.022402,-9.317069,-0.710654,3.551177,-8.962116
1.04333,0.083501,3.997562,-9.339216,-0.77515,4.285026,-9.254668
1.076741,-4.755354,5.420965,-10.618065,-1.010389,3.615074,-8.988902
1.109971,-13.979195,8.643975,-10.434603,-1.053636,3.975265,-9.080933
1.143328,-15.01652,10.288402,-8.225873,-0.869126,4.030633,-9.083028
1.176666,1.938624,11.662872,-4.884346,-1.016973,3.682264,-9.021524
1.210081,10.772796,5.748983,-8.570052,-1.508401,3.598015,-8.794366
1.243332,2.161143,4.705672,-9.290133,-0.78383,4.021056,-9.255716
1.27668,-1.885351,4.030932,-9.850247,-0.879751,3.664905,-8.916176
1.309999,-0.416606,2.9336,-13.592518,-1.006349,3.441189,-8.864998
1.343329,2.885715,2.347,-12.172406,-1.153747,3.727456,-8.954784
1.376643,3.175423,1.846744,-9.77752,-1.622279,3.576017,-8.807685
1.410018,5.200242,1.857967,-9.087966,-1.2992,3.608789,-8.836266
1.443377,7.562805,2.999892,-9.046515,-0.68716,3.7927,-9.062377
1.476679,5.082174,3.10973,-5.941872,-0.618624,4.192397,-9.128519
1.510018,3.138312,4.903949,-6.038841,-0.50714,4.04455,-9.140939
1.543325,0.978216,5.034737,-4.752061,-0.62461,3.631535,-8.974088
1.576667,-0.15907,5.878125,-6.992516,-0.85506,4.006989,-9.000724
1.610015,3.005429,6.091964,0.268609,-0.767968,3.896702,-9.071056
1.643331,-2.358373,1.101821,-13.061734,-0.895613,3.756337,-9.118493
1.676668,0.220274,5.294667,-13.415341,-1.011437,3.793299,-9.186581
1.710036,4.372567,0.72517,-6.364913,-1.259844,3.461092,-9.070158
1.743333,-0.33954,5.934839,-11.383189,-1.095686,3.479348,-9.27487
1.776661,3.819636,5.700648,-12.699,-2.849501,2.930009,-8.707873
1.810091,0.545598,4.556029,-10.105239,-3.161806,3.574371,-9.723499
1.843414,0.38967,3.300226,-8.889988,-9.265442,6.079544,-11.289513
1.876698,0.588695,3.694385,-9.281753,-8.974686,3.308306,-7.699429
1.910012,1.004254,3.780579,-9.370342,-6.442279,0.106396,-9.180595
1.943333,0.886634,4.024048,-9.604234,3.004381,-0.708859,-10.064835
1.976662,1.158087,3.888322,-9.47584,3.283466,1.066056,-12.448049
2.009995,1.42475,3.271494,-8.895525,1.680341,-0.851618,-12.073642
2.043332,0.885138,3.293791,-8.949995,-1.782996,-0.54081,-11.034372
2.076752,1.006648,3.93112,-9.088864,-1.926054,-0.632092,-10.074861
2.110063,1.120077,4.378403,-9.472847,-0.856257,0.631194,-11.746373
2.143329,1.255804,2.937192,-8.665673,0.103703,1.444803,-12.945162
2.176664,1.22393,3.873957,-9.139443,-0.376801,1.563769,-12.161183
2.209998,1.140728,4.316451,-9.476439,-0.200073,1.990102,-11.562611
2.243095,1.111997,3.8349,-9.0528,-0.047138,2.466265,-10.262813
2.276718,1.204925,3.541749,-8.826989,-0.78368,3.744067,-10.797038
2.309995,1.246376,3.840287,-9.092006,-0.458356,4.278142,-9.720656
2.343424,1.247274,3.808114,-9.071206,0.351811,4.977723,-7.701674
2.37655,1.159134,3.916006,-9.063424,0.07108,5.550407,-6.661505
2.409997,1.475779,3.869617,-9.109215,0.826179,5.990656,-5.51105
2.443158,1.101372,3.979305,-8.917223,0.103553,7.704966,-3.988134
2.476705,1.363397,4.130594,-9.121935,-7.144403,7.739234,6.950167
2.509981,1.751122,3.927379,-9.645835,4.152292,-0.529437,-2.756273
2.543317,1.702338,4.989844,-10.218967,19.562972,27.412642,-18.703124
2.576529,2.535251,4.887788,-10.170333,-3.911367,-1.608811,-4.764781
2.609994,4.480459,7.114475,-14.223412,-8.55374,17.260715,-19.085761
2.64326,19.531098,3.666103,-29.028188,0.152935,7.013166,-9.38785
2.676701,16.107716,3.91436,-25.582809,0.783979,3.908674,-9.802212
2.709971,-1.365642,-1.394672,3.570181,-0.097268,3.54998,-8.966605
2.743305,2.886313,2.977745,-12.078879,-0.7545,3.272991,-8.664327
2.77653,1.511693,5.549509,-15.996382,-1.337958,3.446427,-8.498073
2.81,-3.454657,5.024112,-9.319912,-1.341399,3.032963,-8.684828
2.843312,-0.726517,2.815083,-4.814014,-0.644961,4.568599,-9.380967
2.876687,4.150048,6.048119,-13.13461,-0.533028,4.08645,-9.24539
2.909979,3.464085,5.903115,-11.449182,-0.921052,3.731347,-8.909292
2.943705,-0.21384,7.232244,-10.971073,-0.78383,4.113385,-9.015688
2.976665,-6.444523,9.508313,-12.549058,-0.257536,3.90194,-9.006111
3.010001,-8.447943,8.221832,-4.928191,-0.700628,3.791204,-8.789727
3.043586,-7.030076,7.273994,-6.213474,-0.220274,4.307323,-9.112358
3.076652,-4.329919,7.057461,-7.483195,-0.447133,3.863781,-9.087667
3.110034,-2.678609,5.742398,-9.00222,-0.785775,4.043801,-9.162338
3.14332,-1.241139,10.508077,11.47911,-1.671961,3.676727,-9.141388
3.176665,-44.596591,6.991618,-24.441332,-1.48775,3.491469,-9.00671
3.209995,-0.608897,6.13566,-13.370747,-0.839198,1.433131,-9.830793
3.243321,9.855484,4.082409,-7.050278,1.122621,3.361579,-10.970474
3.276661,-6.129974,7.491126,-14.188546,-1.429689,4.166509,-9.634761
3.309995,-1.809034,2.939586,-10.936056,-5.8048,0.824383,-13.411599
3.343333,0.878554,3.438346,-9.393237,-3.321026,4.960514,-17.702761
3.376664,0.468382,2.766748,-9.297167,-3.228846,-2.484223,-10.1425
3.410001,0.11732,4.406536,-9.307492,-2.209328,-1.397815,-9.667832
3.443332,0.748664,3.670741,-9.171167,-2.243896,-0.766172,-10.186644
3.476671,0.356749,3.625998,-9.017933,-3.200414,0.401642,-10.994567
3.509992,0.857753,4.084953,-9.42152,-3.55417,1.520223,-11.134632
3.543329,0.991833,4.55169,-9.529412,-2.237162,1.963465,-11.087495
3.576666,0.741331,3.862434,-9.095149,-1.933985,1.494185,-11.410275
3.609973,0.819145,4.022402,-9.108317,1.884903,1.845995,-12.37622
3.643329,1.012335,4.134335,-9.177452,1.050194,2.41,-11.833914
3.676663,0.776797,3.771302,-8.950145,-0.768417,2.717067,-11.966647
3.710023,0.792359,3.924686,-8.993391,-1.448993,3.26476,-10.725808
3.742459,0.992731,4.148701,-9.139443,-1.350528,5.767838,-9.160992
3.776663,0.95547,4.005193,-8.832974,0.627902,5.774272,-5.935887
3.809994,0.991833,4.265273,-8.982767,0.97223,8.356661,-4.830624
3.843337,0.793706,4.130445,-8.892981,-0.863589,11.128946,-1.598636
3.876664,0.999465,4.110692,-9.248832,-4.254199,8.030738,4.612594
3.909996,1.929945,4.5475,-10.319078,2.107721,-2.566676,0.254842
3.943328,1.853478,5.025609,-10.077854,4.390823,24.763962,-21.629541
3.976662,4.616036,3.661164,-11.742332,-4.938367,4.319294,-8.136835
4.009996,12.117936,7.180916,-17.851356,-2.758967,8.51214,-13.339023
4.04338,21.814799,12.01977,-34.977542,-0.211146,5.012739,-11.024495
4.07671,0.296892,0.139767,3.022937,0.922249,2.188977,-8.894477
4.109994,1.807388,-6.299669,-2.817178,-0.713647,3.16854,-8.651906
4.143306,2.003569,6.294282,-17.17512,-1.86066,4.048291,-9.215911
4.176665,-5.3644,3.585595,-8.85557,-1.964363,3.680618,-8.782545
4.209993,-5.68314,7.642565,-12.191112,-0.55323,3.972871,-9.008056
4.242388,1.495981,7.125847,-10.599808,-0.968489,3.768608,-9.038135
4.276704,4.158727,7.83291,-12.285536,-1.345889,4.042305,-8.963313
4.309998,-0.876309,9.42152,-13.963782,-0.78368,4.130295,-9.156502
4.343329,-8.432081,6.818481,-8.234103,-0.379345,4.055922,-9.147075
4.376643,-15.966603,14.625653,-8.950294,-1.0897,3.608939,-8.878166
4.409982,-11.967844,8.676747,-2.519239,-0.740583,4.595984,-9.009703
4.442788,-3.645153,6.567979,-3.487878,-1.132947,4.330368,-8.964959
4.476643,7.420943,5.145622,-4.26662,-1.459019,4.38798,-8.861257
4.509979,-1.478173,6.397535,9.455339,-1.323442,4.101863,-9.196307
4.543403,-23.366596,6.583541,-18.246862,-0.772307,2.974004,-9.612015
4.575816,6.301165,4.598228,-8.753813,-0.183462,2.568771,-10.074562
4.610022,8.188312,6.352792,-9.657357,-1.858865,2.448159,-10.127685
4.643331,-3.082196,4.973533,-8.731965,-3.688399,2.966522,-11.155133
4.675966,1.011137,3.925284,-9.366002,-6.077299,-3.148338,-17.141749
4.710001,1.070995,3.384325,-9.055493,-2.550814,-5.066162,-9.860423
4.743337,1.149258,2.801615,-8.892682,-1.394373,-2.318269,-11.45412
4.776666,1.128906,4.866538,-9.87823,-1.099876,-2.033498,-10.274634
4.809978,0.917611,3.707254,-9.049508,-3.591281,0.290906,-11.136877
4.843322,0.646158,3.554319,-8.896572,-3.992773,0.958912,-11.19
4.87584,0.785326,3.692589,-9.007308,-4.72752,2.088417,-12.018573
4.909998,0.897558,4.295351,-9.25377,-3.888023,2.83304,-11.320788
4.943414,1.151652,3.710696,-9.181493,0.144705,1.780003,-11.490483
4.976719,0.946791,3.808862,-9.000874,1.052289,3.463636,-14.035162
5.009953,1.024007,3.901641,-9.146925,2.869553,4.13239,-13.2226
5.043318,0.793108,3.804522,-8.958076,2.488562,4.46759,-10.18006
5.076663,0.973577,3.851809,-8.869637,0.874813,3.930522,-7.123154
5.109159,1.35382,4.331116,-9.133906,-2.097994,6.594016,-7.232244
5.143324,1.631707,3.99846,-9.129866,-2.570567,6.06847,-3.88099
5.176674,1.110051,4.425541,-9.024218,-2.008358,7.836502,-3.557911
5.20998,1.528154,4.264375,-9.235813,-2.017785,10.64934,-2.972657
5.24333,1.425798,4.964405,-9.802511,-3.342425,15.113189,16.166077
5.276664,3.060049,5.357217,-10.376691,8.093439,16.727089,-25.586849
5.309987,2.574457,3.341826,-9.983429,-3.754841,5.091452,-9.536296
5.343318,9.523876,6.257619,-15.945952,-3.254435,16.159643,-20.706244
5.375708,23.66259,14.007927,-32.718383,0.853563,8.639336,-13.944029
5.409908,0.609496,-4.073431,-0.983902,-0.622664,4.478065,-10.246801
5.443319,-0.534525,-4.835263,2.892598,-0.261426,3.300375,-8.618536
5.475933,0.893817,1.469494,-16.849048,-0.884839,4.160523,-9.037386
5.509981,-4.562165,2.45594,-8.514534,-2.024519,4.108746,-8.826989
5.54254,-7.089634,2.815532,-5.076188,0.123755,3.681067,-9.027959
5.576651,-1.608961,3.409465,-10.08803,-1.408739,3.716981,-8.707424
5.60998,0.285668,7.798343,-14.248104,-1.34125,4.303881,-9.225787
5.642376,-4.449633,5.918079,-8.567657,-1.108705,3.736135,-8.944458
5.676664,-4.506348,5.714266,-8.496577,-0.207555,4.360147,-9.135552
5.70998,-1.725383,5.412885,-7.513722,-0.501603,4.524155,-9.058636
5.743326,-4.749368,5.174952,-6.462181,-0.872418,4.083457,-8.850034
5.776666,-1.825943,4.803988,-7.883041,-0.713498,4.31271,-8.857815
5.810141,4.944353,3.13921,-7.279381,-0.906238,4.108447,-8.828934
5.843325,5.961925,3.993671,-8.091793,-1.036128,3.799285,-8.821901
5.876666,5.496385,4.294154,-5.732672,-0.681175,4.289665,-9.003118
5.909978,-6.247892,3.083094,5.097288,-0.87167,4.142566,-9.171317
5.943402,-41.465163,17.094911,-18.493324,-1.289922,4.267518,-9.624136
5.976644,-30.486458,-2.519389,-6.344113,-0.944397,3.778634,-9.640747
6.009996,10.960149,6.866816,-16.122082,-2.518341,3.721171,-8.852278
6.043331,2.943776,13.541639,-20.24714,-1.939223,5.293919,-10.032063
6.076725,-0.609645,2.361366,-9.251077,-4.510987,5.832783,-9.435287
6.109978,1.603723,4.179677,-9.790091,-8.496727,0.5239,-14.776193
6.142674,1.387938,3.336738,-8.958375,-4.517721,-3.885928,-11.287567
6.176581,1.301594,3.622257,-9.182839,0.418551,-5.686881,-8.837015
6.209469,0.912672,3.470519,-9.276516,-1.163025,-0.093527,-12.856424
6.243317,1.208068,3.085039,-9.11954,-0.287464,1.658193,-12.432935
6.276255,1.478023,4.221278,-9.44681,-1.460515,1.861858,-11.219181
6.309979,1.234854,3.899246,-9.38815,-1.881311,2.442921,-11.757895
6.342562,0.926739,3.172281,-8.854523,-4.390973,3.448971,-13.035397
6.376313,1.1735,3.052866,-8.634248,-1.191457,2.505322,-12.928552
6.409354,1.073838,4.171896,-9.422119,1.828786,4.342788,-13.071311
6.44331,1.024605,3.350356,-8.799305,1.623626,6.996257,-13.180251
6.476644,1.157488,3.420688,-9.074648,1.4249,6.819528,-8.877867
6.509198,1.003206,3.889519,-9.386503,0.704669,6.436742,-6.431803
6.542557,1.359506,3.849116,-9.273673,-0.654089,7.153382,-4.57249
6.576008,1.570054,4.024348,-9.409548,-0.00404,9.061629,-4.023749
6.609621,1.239193,4.409678,-9.221447,0.576874,8.311319,-0.667856
6.64341,1.727329,4.097224,-9.530909,-0.801488,22.810523,22.423696
6.676736,2.830047,4.183119,-9.835881,4.120119,24.580201,-28.221912
6.709572,4.539269,3.037453,-10.764865,-4.652399,3.728204,-4.671703
6.74332,4.606459,5.544421,-13.857087,-3.48264,23.64598,-19.325189
6.775937,25.339788,11.609749,-34.855733,-0.644213,5.157743,-10.520647
6.809739,1.72254,-4.198682,-8.147161,0.66621,4.902303,-9.449354
6.842445,-5.675508,-4.457564,7.32592,-1.863653,2.536149,-8.227668
6.875798,2.976249,6.009212,-19.632406,-2.609773,2.69911,-7.74103
6.909067,-6.453801,3.786864,-8.542667,-0.771709,4.089143,-9.027809
6.942432,-4.959766,5.835027,-9.2831,-0.791013,4.012825,-9.054745
6.975767,-1.366988,4.634891,-5.444609,-1.864401,3.232737,-8.548653
7.009073,-2.2005,6.686197,-13.098546,-0.948886,4.595236,-9.120289
7.042514,-3.026529,6.333638,-12.863158,-0.776048,3.954465,-9.071655
7.07574,-3.241266,4.691905,-9.097842,-1.115439,3.885479,-8.954185
7.109244,1.846295,3.846123,-10.560452,-0.728612,4.113086,-8.942064
7.1424,4.494227,2.817627,-8.932786,-1.055282,4.070438,-8.929943
7.175777,0.394459,3.919897,-7.517313,-1.200585,4.062058,-8.754561
7.209086,-3.756637,6.520991,-7.169693,-0.769614,4.301786,-8.950444
7.242387,-3.555816,7.816001,-4.715698,-0.469879,4.393966,-9.185683
7.2758,3.564196,8.829383,-0.788918,-1.264782,3.935161,-9.011199
7.309183,0.523152,2.92118,2.388002,-0.807773,3.836097,-9.394883
7.342447,-35.98419,21.99886,-19.112547,-2.158899,3.035806,-9.327694
7.375774,7.616826,6.771343,-9.339516,-2.832292,2.212172,-9.346698
7.409173,14.802231,6.539995,-8.814119,-1.552546,3.360382,-9.828249
7.442475,0.127945,11.627556,-18.155431,-2.172367,5.225981,-10.450315
7.475858,-0.756445,2.825259,-9.07375,-9.582236,9.856233,-12.128411
7.509108,0.352409,2.797725,-8.466349,-10.459144,3.355444,-16.674115
7.542423,0.068836,3.21029,-8.926501,-0.995874,-3.36143,-7.072425
7.575842,0.841891,4.099169,-9.579992,1.16497,-1.083565,-10.217321
7.609159,1.336611,3.012462,-8.526805,-0.981508,1.432083,-11.720335
7.642593,1.283936,3.840437,-9.275618,-1.153149,2.364957,-10.910168
7.675801,1.447496,4.214095,-9.296119,-1.072042,2.671725,-11.166656
7.709143,1.474432,3.215378,-8.668217,-2.008657,3.291097,-12.082172
7.74247,1.049596,3.848068,-9.000724,-2.037538,4.016417,-12.770679
7.775793,1.192654,3.842083,-8.998779,-1.628714,2.768544,-11.754304
7.809174,1.402603,3.738829,-8.976183,-1.073239,2.318418,-11.295499
7.84243,1.194899,4.163366,-9.045018,2.663345,3.254136,-10.475306
7.87579,1.385843,3.774893,-8.954335,1.278849,6.267196,-12.390735
7.909399,1.480567,3.728204,-9.013893,0.333404,8.617638,-11.863094
7.943301,1.235602,4.180725,-8.927848,1.083415,6.779274,-6.468765
7.976053,1.342297,3.924835,-8.895375,-0.074073,9.204538,-3.473961
8.009993,1.204027,4.313159,-9.038135,-0.176579,11.16486,-0.924494
8.042588,0.970135,4.134784,-8.904653,-1.644426,12.205777,12.039972
8.076077,1.885052,4.575632,-10.007372,0.325773,-2.836632,-12.324593
8.109147,2.059835,5.086813,-10.610732,2.288041,21.412858,-17.168984
8.142479,2.554106,3.600559,-9.973403,-5.77113,18.472973,-20.010105
8.175875,4.205565,5.987364,-12.163428,3.898199,5.207275,-10.792848
8.209063,22.69021,10.006474,-35.258572,-0.224614,4.142865,-9.774528
8.242494,-0.51971,-4.917866,-1.211509,-0.268459,3.154623,-8.786136
8.275799,-2.135255,-4.046645,-2.123433,-0.519411,3.02159,-8.912135
8.309099,2.255568,6.255973,-16.552605,-1.712664,3.595321,-8.651158
8.342451,-4.682178,6.055751,-7.078111,-0.985399,3.496707,-8.667319
8.37579,-0.408825,4.80728,-7.615778,-1.071294,3.877847,-8.821152
8.409154,5.129611,5.221342,-9.890501,-0.795801,3.99427,-8.954933
8.442512,1.396019,5.726087,-11.804135,-0.825879,4.527747,-9.102481
8.475749,-5.530953,6.271536,-13.499889,-0.180918,3.915408,-8.986658
8.509167,-5.528559,6.668838,-10.935607,-0.183612,4.268565,-8.929344
8.542457,-2.642694,5.579437,-7.621615,-0.320984,4.147654,-8.927698
8.575788,2.209478,4.769121,-7.719631,-0.5028,4.137179,-8.875323
8.609161,0.473321,4.274551,-6.376436,-0.376502,4.202124,-8.90585
8.642539,-2.609474,5.602183,-7.316792,-0.319039,4.22038,-8.81786
8.675806,-3.530825,6.024775,-5.396424,-0.492325,4.203021,-8.996085
8.709173,-2.360617,9.640597,-1.422955,-0.166253,4.592243,-9.256164
8.742517,-14.12405,2.591367,-15.925302,0.373509,3.822928,-9.271428
8.775788,-8.343193,4.479861,-19.016326,-1.665227,4.327375,-9.467311
8.809146,8.369231,7.600665,-16.520731,-2.626982,2.421821,-9.384558
8.842553,0.962204,4.121316,-9.699407,-1.420112,3.215977,-9.392489
8.87601,0.413164,3.839539,-9.532555,-0.477211,5.241244,-10.212832
8.909162,1.291269,3.792551,-9.236112,-9.870748,1.772521,-11.190748
8.942463,1.665975,3.661913,-8.967653,-11.221725,3.783123,-15.28498
8.975836,1.519624,3.599362,-9.079137,-2.532707,-2.773033,-7.77455
9.009194,1.560327,3.116165,-8.485653,-0.148296,0.244068,-11.055471
9.042534,1.206571,3.327461,-8.790476,-0.475565,1.632156,-12.012737
9.075814,1.545812,3.937705,-9.231174,-0.388772,2.115951,-11.310313
9.109177,1.825644,3.559108,-9.139144,-1.966757,2.689832,-10.772945
9.142503,1.588759,3.760827,-8.896273,-4.053528,3.35275,-11.565604
9.175806,1.710419,3.836995,-9.198402,-4.686069,3.377441,-11.743978
9.20912,1.585617,3.569433,-8.924406,-1.445102,3.182008,-12.008248
9.242499,1.742143,3.601158,-8.992494,0.530484,4.510388,-12.133349
9.275885,1.517529,3.978557,-9.108916,0.342233,3.349608,-11.235192
9.309229,1.531596,3.883833,-9.113555,0.512677,4.427187,-10.751546
9.342481,1.674505,3.524241,-8.885948,0.784877,5.500725,-7.616527
9.375929,1.499422,3.841634,-9.000574,0.308863,5.390588,-6.024176
9.409166,1.351725,3.874705,-8.878017,-0.010325,6.107677,-5.500276
9.442464,1.479071,3.735238,-8.831927,0.333704,6.295479,-3.856448
9.475883,1.460066,3.858244,-8.747827,-2.303454,5.990357,-3.175124
9.509248,1.682885,4.038713,-9.258708,-2.282205,11.418804,12.090103
9.542577,2.169224,4.497219,-9.729934,9.076294,22.739892,-26.164171
9.575902,2.042626,4.830774,-9.758516,-5.25576,9.305696,-13.952259
9.609206,2.423916,3.177668,-10.267601,-2.94198,9.585529,-12.837868
9.642592,3.993521,6.653125,-12.397918,0.898007,6.563789,-11.622019
9.67591,20.27632,9.990313,-29.349471,0.231498,4.141668,-9.872394
9.709253,-1.48371,-3.848068,-1.976933,0.750459,3.535464,-9.058935
9.74253,-2.737568,-5.208023,2.121787,-0.78772,2.707639,-8.467247
9.775915,3.890567,6.981741,-17.438192,-1.838813,3.238573,-8.480864
9.809217,-0.973278,4.967098,-9.342359,-0.686711,4.410726,-9.249131
9.842551,-0.366476,4.748171,-6.643249,-0.55338,3.951621,-9.134654
9.875942,2.705993,6.761168,-11.430925,-0.904143,4.599126,-9.256763
9.909284,2.124182,6.243403,-11.064151,-1.04765,4.133737,-8.907496
9.942571,-2.008208,6.460535,-10.591129,-0.428428,4.054426,-9.001023
9.975869,-5.396723,8.1096,-12.455231,-0.455812,4.139872,-8.979475
10.009231,-2.465816,6.144339,-8.715355,-0.521057,4.173691,-8.901062
10.042595,-2.350591,4.518918,-5.429645,-0.962204,4.115331,-8.784939
10.0759,-1.621232,6.008015,-9.175657,-0.633139,4.186561,-8.892532
10.109229,-4.912479,5.788638,-7.370514,-0.693445,4.151245,-8.893131
10.142559,-5.13425,5.308733,-5.488604,-0.704669,4.160224,-8.899865
10.175911,-0.69569,8.525159,-2.877484,-0.491128,4.440954,-9.145129
10.209223,-15.010684,0.89277,-12.212511,-0.936765,3.739877,-9.151414
10.242589,-9.951705,5.893538,-16.501876,-1.675402,3.585146,-9.603785
10.275911,7.29225,6.234724,-11.477165,-1.655051,2.754627,-9.356874
10.309262,2.657808,3.400187,-8.719844,-2.022424,4.286522,-9.536296
10.342558,-2.252126,6.432552,-13.034948,-1.781649,5.524668,-9.783656
10.375918,0.945444,4.472678,-10.383425,-6.681558,2.205587,-11.674095
10.409294,1.240989,3.376394,-9.001921,-4.426289,1.541472,-15.780896
10.442582,0.870922,3.555965,-9.350888,-3.269399,-3.150134,-8.586063
10.475928,1.298153,3.744665,-9.275917,-2.650626,-0.45671,-10.758131
10.509231,1.16108,3.654879,-9.214264,-3.113022,0.474368,-10.974814
10.542515,1.091346,3.5205,-9.217108,-3.308157,1.856321,-11.193143
10.575921,1.210312,3.593526,-9.054296,-3.733592,2.124481,-10.59068
10.609306,1.14417,3.626298,-9.096196,-3.35709,3.014557,-11.725872
10.642607,1.184873,3.505985,-9.074199,-2.405211,2.882572,-11.730361
10.675988,1.406195,3.561053,-8.814269,1.777758,2.943028,-12.10806
10.709257,0.976271,3.2272,-8.836416,1.28678,3.983944,-12.775767
10.742619,1.188764,3.937555,-8.999976,1.482064,4.360595,-12.211014
10.776024,1.217495,3.490871,-8.929644,0.566997,3.885479,-9.194661
10.809282,1.201034,4.018811,-9.166977,-0.656484,4.311812,-7.752403
10.842591,1.128607,3.81799,-8.85168,-0.840096,6.499292,-5.943519
10.875998,1.282141,4.091388,-9.072104,0.097418,6.070565,-3.554768
10.909237,1.325837,4.046196,-9.237908,-1.308628,7.574327,-3.510923
10.942638,1.067852,4.27889,-8.954335,-4.899909,6.134014,0.130938
10.975996,1.611954,4.398904,-9.692972,-1.508551,11.538519,21.495611
11.009283,2.328444,5.022915,-10.116761,10.475006,27.615109,-24.120797
11.042636,2.504275,4.902153,-10.325513,-3.655628,3.61687,-8.844347
11.076012,5.404056,6.96992,-13.678413,-3.313244,12.289726,-16.221744
11.109245,14.496062,4.548697,-24.349601,0.807024,5.255161,-10.218967
11.142602,8.728224,3.875004,-16.412539,0.333704,3.915108,-9.733525
11.176027,-5.170014,0.846979,-1.677198,0.562957,3.115417,-8.902109
11.209264,-4.465346,-1.113493,-5.174503,-1.989353,3.035657,-8.3191
11.242589,-2.286395,3.122749,-12.173304,-1.440762,3.723865,-8.571847
11.275945,-2.631471,4.330068,-12.871089,-0.899354,4.010581,-8.821302
11.309281,-5.551304,6.850355,-10.673732,-1.220039,3.557911,-8.793768
11.342568,-1.468596,4.313757,-6.216467,-1.356813,4.123711,-8.912734
11.375953,2.764055,6.867713,-12.642435,-0.907285,4.168005,-8.912285
11.409308,1.658193,6.994311,-11.080462,-1.384197,3.802727,-8.782096
11.442627,-7.192588,4.659732,-10.109429,-0.897558,4.327824,-8.928147
11.475997,-5.870194,6.921435,-10.009467,-0.672196,4.412522,-8.889539
11.509306,-3.972422,4.210204,-5.297809,-1.218991,4.157231,-8.729421
11.542693,2.568322,4.053977,-8.793169,-0.971632,4.210354,-8.76788
11.57599,0.76692,3.572576,-8.613747,-0.539164,4.489288,-8.894627
11.609323,-4.029436,4.701482,-7.080506,-0.965047,4.403992,-8.857665
11.643031,-0.616978,5.872438,-5.044015,-1.154645,4.305677,-8.799903
11.676042,3.207597,3.536961,2.913249,-1.171405,4.439906,-8.961069
11.709398,-28.989131,11.035868,-17.615668,-1.705032,4.439457,-9.395033
11.742642,-3.356042,0.921651,-4.890332,-2.155008,3.101649,-9.27053
11.776035,9.461774,1.849138,-8.609557,-1.7812,4.571592,-9.257362
11.809386,4.248663,20.05829,-28.683111,-2.297618,6.239063,-9.740409
11.842684,-0.692847,2.360318,-8.389283,-4.588352,5.58677,-9.1785
11.876036,-0.689255,1.824297,-8.059619,-4.53463,1.837316,-14.265312
11.909375,-0.010176,4.971887,-9.990313,-2.975201,-2.705245,-13.629629
11.942788,0.768566,4.247166,-9.435586,-0.556223,-3.223459,-9.958738
11.976042,0.521356,3.884581,-9.187778,-2.16249,-0.691051,-11.520711
12.009444,0.57837,3.856897,-9.105474,-2.806853,1.686326,-11.928638
12.042697,0.42334,4.009982,-9.158747,-2.829299,2.438133,-12.105516
12.07601,0.839347,4.046944,-9.303152,-1.832677,2.520586,-12.296011
12.109425,0.658429,3.804522,-9.162338,-1.769079,3.15986,-12.897726
12.142666,0.353457,3.685257,-8.940867,-0.960558,4.258539,-12.554744
12.176016,0.597225,3.534866,-8.934133,-0.764675,4.461455,-11.549592
12.209313,0.612189,3.875004,-9.174609,-0.264269,5.422312,-12.02396
12.242684,0.810017,3.423082,-8.964959,-0.49053,6.884623,-10.256079
12.27606,0.853863,3.152977,-8.900314,1.320449,5.938281,-6.887915
12.309323,0.806276,3.970925,-9.255416,2.511607,6.806509,-5.262793
12.342709,0.892471,4.098571,-9.285046,-0.502202,7.340585,-2.601842
12.376069,0.838599,3.946982,-9.34191,-1.016824,7.414958,-1.453183
12.409364,1.213305,3.857197,-9.273822,-4.503355,7.464639,5.637798
12.44269,0.989439,4.652549,-9.58927,3.883833,1.706079,11.741734
12.475993,1.472786,5.015283,-9.818373,-1.015477,29.680332,-33.290767
12.509251,3.996215,3.85151,-10.998008,-5.619991,3.21867,-8.52037
12.542614,9.393088,7.686859,-16.300905,-4.348923,7.356148,-12.352876
12.576014,29.460806,3.113172,-23.5957,-0.735645,5.262494,-10.609835
12.609389,1.186818,0.477361,-10.30172,-0.267861,3.219867,-9.453244
12.642646,-6.911259,1.576339,-4.405189,-0.293001,4.480609,-9.290882
12.676057,-1.908097,1.566462,-8.565263,-1.586365,3.770404,-8.765036
12.709346,-4.489288,4.169202,-8.867991,-1.660887,3.825921,-8.496128
12.742686,-1.938175,5.450595,-10.026526,-0.690153,3.844627,-8.867542
12.776068,0.79206,5.782952,-8.282139,-0.528539,3.995018,-9.106522
12.809364,2.806105,5.239,-10.373249,-1.249968,3.694235,-8.798107
12.84272,0.872269,7.163109,-12.864355,-1.339604,3.988882,-8.853326
12.876032,-4.441253,7.522701,-10.503887,-0.928983,4.087946,-9.049956
12.909512,-5.351531,6.322265,-10.579307,-0.802834,3.806468,-8.958375
12.942733,-3.247551,5.288232,-8.359055,-0.656633,4.244772,-8.990698
12.976105,-1.251913,5.257256,-6.305804,-1.04765,4.035122,-8.780898
13.009374,1.477126,5.430243,-5.994547,-0.95128,4.054576,-8.831328
13.042739,-0.269357,7.00344,-6.171275,-0.85506,4.101414,-8.974088
13.076099,-1.063363,5.987963,-0.749262,-1.207768,4.087497,-9.014641
13.109395,-5.061074,0.849822,-5.424258,-1.882808,3.709798,-8.940119
13.142711,-28.266206,9.133607,-11.720185,-2.105027,3.39899,-9.007308
13.176131,-1.896275,11.421947,-42.301068,-1.180982,3.204005,-9.009104
13.2094,1.570652,4.57249,-10.139208,1.619137,3.524989,-11.461153
13.242767,0.781286,5.288382,-10.0587,-2.488413,2.802064,-10.05017
13.276075,1.021612,3.782525,-8.636792,-5.607421,2.025567,-12.54786
13.309449,1.278849,4.107699,-9.020028,-5.34794,2.629376,-16.64673
13.342724,1.209863,3.543246,-8.737652,-2.663196,-2.423617,-7.421692
13.376055,1.515434,3.855551,-8.946853,-2.484821,-0.623413,-8.968401
13.409397,1.509448,4.051583,-8.943111,-2.390845,0.403737,-9.623388
13.44273,1.217794,3.883534,-8.940268,-2.262751,1.121125,-10.160008
13.476153,1.397515,3.839389,-8.886397,-1.24069,1.82744,-10.64545
13.509407,1.774167,4.047243,-8.959423,-1.385544,1.956582,-11.008034
13.542794,1.519923,3.972571,-9.004315,-1.822651,2.301359,-11.128796
13.576112,1.295309,3.879044,-8.832376,0.739535,2.423318,-11.897362
13.609437,1.617491,4.363738,-9.059833,1.088353,1.829984,-11.348173
13.642779,1.49613,4.197934,-8.925005,0.194985,2.767646,-11.940909
13.676114,1.386741,3.948329,-8.792421,0.168947,1.939373,-10.165694
13.709557,1.606417,4.198083,-8.911237,-1.257599,3.078604,-11.069538
13.742764,1.626469,4.256743,-8.98157,0.300483,4.436764,-8.837464
13.776105,1.689619,3.963742,-8.717001,0.237184,3.926032,-5.971053
13.809413,1.607465,4.115031,-8.856618,-1.009641,4.936422,-5.956687
13.842792,1.587562,4.148701,-8.962415,-0.768716,5.902067,-4.321539
13.876134,1.407542,4.272605,-8.804093,-1.967206,5.847149,-3.112274
13.909429,1.467249,4.139124,-8.852278,-1.079524,13.885668,14.910274
13.942805,1.479669,4.985055,-9.637604,6.949867,25.512626,-25.178024
13.976253,4.067445,4.078369,-10.776686,-6.247144,10.218967,-13.53281
14.00943,3.26476,3.255931,-10.655176,-1.318654,8.082814,-11.749216
14.042797,2.859527,6.900635,-14.072423,1.535486,7.530931,-12.431737
14.076233,20.876688,6.09361,-26.697499,-0.291953,4.355957,-10.070372
14.109446,0.459254,-1.220338,-1.891038,-0.21803,4.693551,-9.319015
14.142817,-3.104642,-0.798944,0.197978,-0.888281,3.819636,-8.840756
14.176158,2.628478,5.416925,-13.695921,-1.645324,3.902987,-8.572595
14.209488,-0.072427,4.707169,-9.29567,-0.657381,3.804373,-8.91004
14.242929,-4.280387,4.841099,-7.97971,-0.161465,3.753644,-9.03589
14.276144,2.208131,5.126019,-11.859353,-0.931827,3.934412,-8.91019
14.309806,1.547458,5.889647,-10.788508,-1.195348,3.872161,-8.869786
14.342825,-0.702873,6.797681,-13.075052,-1.013981,4.343835,-8.983814
14.376183,-1.696502,6.838832,-11.228907,-1.121873,4.1074,-8.91034
14.409464,-5.192161,6.301016,-9.210823,-0.718885,4.253601,-8.885349
14.442869,-2.850548,5.003013,-8.618087,-0.795502,4.05278,-8.837613
14.47614,-1.35786,6.11486,-9.549315,-0.975373,4.063405,-8.80963
14.50955,-1.10242,5.067658,-3.04688,-0.994228,4.101264,-8.859162
14.542878,-0.956817,7.799839,-3.75948,-1.041964,4.08196,-8.965857
14.576162,-2.748642,14.910274,15.99743,-1.287528,4.020158,-8.972292
14.609515,-40.473479,14.701971,-25.218428,-1.632156,3.629141,-8.999826
14.642847,6.347704,9.449204,-17.593671,-1.010688,2.732031,-9.534201
14.676184,4.878061,6.510366,-10.528279,-0.244816,3.030419,-9.915192
14.709504,0.068536,5.204133,-10.239618,-0.89262,3.94369,-9.817774
14.742831,1.308777,3.84313,-8.979175,-3.357838,5.69571,-10.001985
14.776242,1.321048,3.721919,-8.980821,-5.409443,0.077365,-13.64609
14.809514,1.378361,3.858543,-9.038883,-3.116763,-2.155906,-11.874317
14.842837,1.446449,3.933066,-9.015389,-3.110478,-1.513788,-10.340926
14.876173,1.394074,3.822479,-8.91004,-2.980738,-1.172153,-9.724547
14.909522,1.435525,3.613728,-8.814418,-3.585595,0.254992,-10.336587
14.942792,1.556736,4.075825,-9.080035,-3.68376,2.026914,-10.575117
14.976224,1.487152,3.888173,-9.015539,-3.621509,2.784556,-11.119967
15.009506,1.507054,3.895505,-8.998629,-3.916006,3.148787,-12.006003
15.042841,1.376715,3.690195,-8.858114,-2.617255,4.217088,-11.949139
15.076187,1.555688,3.876501,-9.015539,1.718051,3.493115,-11.187307
15.109579,1.386292,3.974666,-9.024667,2.695967,3.289451,-12.779208
15.142876,1.488947,3.867372,-8.962415,2.830047,6.874747,-12.609214
15.176203,1.284236,3.962994,-9.036489,2.315575,5.550407,-6.607035
15.20954,1.405147,3.845824,-8.933235,-0.383535,7.516715,-5.960578
15.242864,1.235153,3.841035,-8.91019,-1.658044,6.267047,-1.964812
15.276237,1.343794,3.788959,-8.862304,-1.29935,6.603594,-4.509789
15.309584,1.456325,3.847021,-8.91842,-3.684658,4.36703,5.312624
15.342905,2.062678,3.390909,-9.057888,-3.276582,3.272392,14.784125
15.376184,1.58861,4.092585,-9.143633,16.622488,18.134481,-19.083965
15.409621,2.549467,4.433921,-9.531507,-5.054789,4.906343,-8.955382
15.442909,2.386655,4.220979,-9.349991,-10.475306,16.415382,-14.940501
15.476202,4.89497,5.859868,-11.915469,-1.534888,5.77128,-10.893258
15.509576,14.466882,0.508936,-20.599249,0.020052,3.568236,-9.32096
15.542938,-5.008998,-1.252661,-11.568896,0.693445,4.092884,-9.074348
15.576213,-3.789109,0.102805,-5.141732,-1.76444,4.014022,-8.698894
15.609542,2.229979,3.949826,-7.95891,-1.582773,3.867672,-8.607911
15.642916,2.764354,4.859056,-6.747251,-0.382936,3.919448,-8.782993
15.676283,3.111975,3.990379,-6.895996,-1.236949,3.918849,-8.635745
15.709595,8.998928,4.879408,-8.801848,-1.75172,3.993222,-8.492985
15.742932,5.12138,5.333873,-8.008292,-0.696289,4.892576,-9.186132
15.776242,1.533541,6.743809,-10.771449,-0.962204,4.318995,-8.913183
15.80962,-0.055518,8.571997,-11.416859,-0.276989,4.382892,-8.953138
15.842974,-3.26895,7.969834,-8.167362,-0.241374,4.321539,-8.999527
15.876294,-1.314464,7.386376,-7.712597,-0.367972,4.19958,-8.862304
15.909604,7.193037,8.630507,-5.700947,-0.753602,4.166209,-8.862903
15.94293,6.544784,10.835496,-2.320812,-0.471824,4.22053,-8.936976
15.976247,0.746718,12.507157,-5.221491,-0.229403,4.397557,-8.794516
16.009631,2.451002,12.156095,-3.448372,-0.783082,3.992324,-8.890138
16.042917,2.274722,10.622405,-1.023408,-0.361088,4.285325,-8.745433
16.076304,-12.591406,9.95395,-13.653871,-0.871221,4.231005,-8.890138
16.10963,-24.15297,10.253385,-20.327947,-0.810167,3.979605,-8.984712
16.142923,7.083798,1.016525,-8.333616,-0.693894,4.691007,-8.710117
16.176252,2.156654,8.542068,-12.875279,-0.908033,3.998011,-8.784041
16.2096,0.929133,4.771814,-10.057054,-0.12974,4.172195,-8.866794
16.242919,0.358844,4.131791,-9.465964,-0.597225,4.112188,-8.951192
16.276267,1.664329,3.757983,-8.854373,-0.582111,4.183867,-8.88505
16.309611,2.027213,4.369424,-9.385606,-0.419,3.521996,-8.804542
16.342974,1.262238,4.758346,-9.608873,-0.601265,4.162019,-8.858563
16.376255,1.383748,3.833254,-8.865147,-0.449677,3.939949,-8.877418
16.40962,1.60103,3.086984,-8.259094,-0.363632,3.47426,-8.76788
16.44309,1.090149,3.783423,-8.764138,0.198875,4.070887,-9.063275
16.476417,1.539377,3.62944,-8.674951,-0.794454,4.054127,-8.892981
16.50976,1.233956,5.225083,-9.546173,-0.02918,4.89931,-9.198552
16.543085,1.02251,2.571015,-7.832162,-0.313652,3.293791,-8.656396
16.576412,1.576339,6.570822,-9.607975,-0.073924,3.996963,-8.892382
16.609707,1.204925,4.121017,-8.800202,-0.197978,4.373315,-8.982916
16.643096,1.28259,4.418956,-8.883554,-0.254692,4.636537,-9.032299
16.676433,1.533541,4.198083,-8.84315,-0.588097,4.009533,-8.648464
16.709801,1.491641,4.913526,-9.190771,-0.680426,3.709649,-8.81816
16.743099,1.741395,3.195176,-8.335711,-0.538715,4.094081,-8.965109
16.776424,1.644875,4.348774,-9.003118,-0.90938,4.141369,-8.833722
16.809766,1.927401,4.449034,-9.118643,-0.895314,4.049188,-8.891185
16.843093,1.842554,4.154088,-8.769077,-0.678481,3.860638,-8.900912
16.876429,1.580379,3.567189,-8.682433,-1.046603,3.910918,-8.710267
16.90976,1.727478,4.594038,-9.239404,-0.987045,4.140171,-8.848687
16.943087,1.723587,4.117575,-8.936826,-1.052289,4.10306,-8.82624
16.976648,1.654752,4.149599,-8.89358,-0.931078,4.452327,-8.815466
17.009748,1.665676,4.24956,-8.878466,-1.103467,4.296997,-8.756806
17.04314,1.651609,3.954016,-8.835668,-1.122322,4.058616,-8.770573
17.076489,1.624524,4.153639,-8.909292,-0.989439,4.271708,-8.80948
17.109743,1.623776,4.055474,-8.873976,-1.094788,4.168753,-8.778504
17.143074,1.510945,3.987087,-8.792571,-1.069648,4.427935,-8.758751
17.17648,1.605669,3.969429,-8.831029,-1.129655,4.229957,-8.72987
17.209767,1.532493,4.129397,-8.910489,-1.094937,4.288767,-8.769975
17.243109,1.643828,4.049937,-8.860359,-1.181581,4.201076,-8.726428
17.27643,1.595493,4.0863,-8.947601,-1.139531,4.258689,-8.726728
17.309759,1.637094,4.042305,-8.866494,-1.078177,4.205565,-8.750521
17.343234,1.640835,3.989631,-8.881309,-1.062615,4.059813,-8.760547
17.376415,1.619286,4.07358,-8.899865,-1.084163,4.21185,-8.732863
17.409802,1.563021,3.857047,-8.73436,-1.139381,4.189554,-8.719695
17.443144,1.616144,3.990229,-8.99384,-1.124417,4.185962,-8.707573
17.476427,1.742891,4.225618,-9.017035,-1.845546,4.320641,-8.733761
17.509752,1.467249,3.849116,-8.824145,-1.900166,3.982897,-8.848238
17.54308,1.635298,3.907327,-8.959722,-1.559728,4.057269,-8.902109