time_tick,acc_X_value,acc_Y_value,acc_Z_value,acc_A_value,acc_B_value,acc_C_value
0.003681,1.765039,4.596133,-11.243722,-0.690752,3.462289,-9.768542
0.034716,0.326521,2.3678,-7.996919,0.13004,3.317734,-9.133308
0.068035,0.970883,3.928277,-9.732628,-0.418252,3.783273,-9.062377
0.101369,0.206358,3.78013,-9.59346,-0.388174,3.5205,-9.097393
0.134722,0.921651,3.542647,-9.35014,-0.257536,3.851959,-8.992943
0.168035,0.339689,3.436401,-9.156802,-0.340138,3.792401,-8.933235
0.201345,0.772607,3.546388,-9.209626,0.405981,3.762173,-9.083925
0.234721,0.424537,3.590234,-9.298663,-0.19289,3.73434,-9.020926
0.26811,0.926739,3.554469,-9.232671,-0.244966,3.801978,-8.973938
0.301403,0.409124,3.366368,-8.989052,-0.281179,3.794496,-9.00656
0.334703,0.644063,3.400337,-8.998779,0.212493,3.623155,-9.176105
0.367513,0.50699,3.360981,-9.060282,-0.449677,3.735238,-8.954335
0.401385,0.693445,3.704411,-9.508014,-0.02933,3.943541,-8.88071
0.434083,0.677434,3.488177,-9.067764,-0.024392,3.512419,-8.991895
0.46802,0.47362,3.45361,-9.106821,-0.12151,3.888472,-9.000574
0.501407,0.392663,3.508379,-9.163386,0.329663,3.718029,-9.074348
0.53473,0.731305,3.54564,-9.224291,-0.777245,3.762024,-8.825043
0.568104,0.483496,3.422035,-9.189274,0.305272,3.765017,-9.161291
0.601396,0.592287,3.456602,-9.205735,-0.652593,3.36113,-8.883105
0.63473,0.411069,3.50778,-9.240452,-0.246163,4.091238,-8.773716
0.668086,0.370217,3.5205,-9.251675,-0.597075,3.459895,-9.156353
0.701398,0.735345,3.532322,-9.242248,0.286566,3.6254,-9.010301
0.73477,0.856556,3.418743,-9.156502,-0.119714,3.777587,-9.094101
0.768116,0.721878,3.378938,-9.103978,-0.302279,3.909871,-8.690215
0.801431,0.765873,3.567787,-9.198253,-0.568194,3.328508,-9.030054
0.834729,0.135427,3.683611,-9.477786,0.207106,3.376992,-9.156802
0.868042,0.714994,3.653084,-9.351188,-0.095323,3.822928,-9.263946
0.901392,0.432019,4.138226,-9.090809,-0.030078,3.520799,-9.248233
0.9347,0.514622,3.913911,-8.848238,-0.2095,3.381033,-9.147973
0.968034,0.642567,4.266171,-8.705478,0.107294,3.51646,-9.123282
1.001397,0.797896,5.408994,-8.514384,0.255441,3.441339,-9.176704
1.034739,0.734448,4.248363,-8.735407,0.001347,3.523493,-9.047413
1.068038,0.233742,4.006091,-8.874276,-0.815404,3.649043,-8.933085
1.101448,0.759588,4.963208,-8.819207,-0.530035,3.269848,-8.92291
1.1347,0.467185,4.562613,-8.671958,-0.550836,3.662212,-9.061329
1.168013,0.277139,3.384624,-9.075246,0.709008,3.674183,-9.238956
1.201368,0.513275,3.721919,-9.155455,-0.227607,3.381182,-9.346698
1.234725,1.054085,3.685406,-9.975049,0.019304,3.408268,-9.232072
1.268031,0.170443,4.426289,-8.961966,0.37291,3.759929,-9.078089
1.301358,0.275343,3.737782,-8.670612,0.289409,3.722967,-9.002819
1.334728,0.318141,4.010581,-9.037087,0.341186,3.62959,-9.100087
1.368064,0.796849,3.672537,-8.821901,0.17179,3.859292,-9.064622
1.401373,0.537368,4.203171,-9.465365,0.491427,3.747059,-8.928297
1.434765,0.400295,3.761724,-8.752466,0.302279,3.995616,-9.104576
1.468034,0.485891,4.125955,-9.14887,0.763927,3.395698,-8.799753
1.501351,0.655885,3.602355,-8.986508,-1.060071,3.931719,-8.920366
1.534699,0.407478,3.866923,-9.213367,0.426782,3.814997,-8.781946
1.568115,0.844136,3.640514,-8.909292,1.51304,3.441189,-9.085123
1.601368,0.552631,3.796292,-9.271129,-0.148595,3.842681,-9.487512
1.634726,0.554277,3.738829,-9.159794,-1.838064,3.561203,-9.455639
1.668166,0.526444,3.620611,-9.162937,-0.026936,2.95874,-10.109728
1.70137,0.643614,3.650689,-9.265143,0.001945,4.683824,-13.706097
1.734722,0.490979,3.598464,-9.163685,-2.785304,2.517892,-12.255757
1.768012,0.522404,3.560455,-9.103529,-2.770789,4.752211,-15.94296
1.801367,0.339091,3.36951,-9.142585,-11.602566,-13.445718,-18.222919
1.834704,0.055368,3.38657,-9.237758,-8.591002,-27.335876,-12.587216
1.868014,0.72068,3.591131,-9.064023,-6.226643,-2.058937,-18.129842
1.900979,0.761084,3.6881,-9.319613,-2.264696,6.83554,-11.976224
1.934291,0.570289,3.617319,-9.330537,1.339753,11.009082,-11.348023
1.968013,0.449527,3.468125,-9.074049,6.344412,4.570545,-2.885565
2.001367,0.519261,3.265808,-9.024667,12.106114,11.585058,-9.752081
2.033921,0.663816,3.886377,-9.593759,3.958355,19.055682,11.577127
2.068334,0.545299,3.580656,-9.306445,16.017631,31.148479,6.084333
2.101371,0.744474,3.413206,-8.990848,-2.609474,-5.728482,-5.672515
2.1347,0.415708,3.535913,-9.259457,-6.401875,8.997432,-12.029796
2.168165,0.668006,3.588737,-9.276067,4.820448,2.942429,-9.768991
2.201372,0.152187,3.145195,-9.108168,2.432296,5.164328,-9.382762
2.2347,0.542156,3.485633,-9.116697,-2.497391,4.67305,-8.931888
2.268025,0.470627,3.607143,-9.268585,1.027,4.297147,-9.039781
2.301374,0.463444,3.552972,-9.223243,0.333554,4.043203,-9.032897
2.334701,0.697486,3.518854,-9.041128,0.109988,4.079267,-8.932636
2.36802,0.534974,3.661464,-9.324851,0.34373,4.126554,-8.623773
2.401402,0.643614,3.264012,-9.018531,-0.951729,4.439308,-8.907496
2.434701,0.890226,3.78432,-9.255566,0.610992,4.122663,-8.887893
2.468015,0.664564,3.798237,-9.190471,-0.569691,4.11997,-8.822798
2.501418,0.288212,3.693038,-9.136749,0.181517,4.128649,-8.963313
2.534717,0.66636,3.970327,-9.268884,0.138569,4.088545,-8.769675
2.568032,0.302428,4.84918,-9.780364,-0.01676,3.874256,-8.820703
2.60139,1.162576,3.724463,-8.713858,-0.525845,4.05712,-8.895525
2.634702,-0.315747,3.812902,-9.137947,0.216833,3.959403,-9.034244
2.668034,-5.173157,-1.792124,-14.255586,-0.07976,3.986039,-8.903007
2.701392,-5.535442,-1.39542,-13.976202,0.093676,3.979904,-8.841654
2.734725,-3.252789,0.44444,-10.370705,-0.209799,4.044101,-8.971544
2.768035,-0.253495,4.736798,-13.048117,0.057912,3.942194,-8.929494
2.801403,2.604835,3.677775,-11.021652,0.189598,3.933215,-8.978876
2.834702,1.582474,-0.097866,-6.783913,0.010325,4.04036,-9.085721
2.868035,2.286694,4.06954,-14.648398,-0.203963,4.006989,-8.923059
2.901433,0.250203,3.367715,-10.44418,-0.087541,3.924237,-9.04412
2.93479,0.910727,3.377591,-9.95814,0.03337,4.3166,-9.216958
2.968122,1.532194,3.106737,-8.963313,-0.03352,4.106053,-9.118493
3.001427,2.755076,3.598763,-8.744685,0.358096,4.401149,-9.403712
3.034789,3.995018,2.885864,-7.196329,0.658728,3.841484,-9.918185
3.068066,3.545939,5.035485,-8.790176,-1.793171,6.324958,-10.484883
3.101456,4.834515,6.109473,-9.012097,0.042798,4.299392,-12.565818
3.134742,3.31519,5.857923,-7.210396,-3.985141,0.778592,-19.24947
3.168092,2.2424,4.63938,-4.753707,-5.21356,-13.337825,-16.814031
3.201367,2.421821,9.462971,-12.43054,-1.509598,-10.349456,-13.872649
3.2347,0.218928,6.877291,-8.793917,-2.645687,0.999316,-11.830173
3.26806,-0.967741,4.653596,-3.243661,-3.090127,4.961562,-10.241264
3.301367,0.882594,5.361407,-6.484927,-0.996472,7.024988,-12.106563
3.334701,0.287913,8.541619,-10.638865,-3.427572,5.77951,-8.024154
3.368035,-1.924408,4.297745,-6.120097,-0.00404,6.440632,-2.702701
3.40137,-0.265916,5.663686,-5.014236,2.901427,8.277051,-4.557226
3.434784,4.444545,9.877033,-11.051132,3.301722,20.34351,-10.68286
3.468061,-1.477425,12.795519,-15.736303,2.609324,12.898773,7.848174
3.501367,-1.570952,-1.568707,-7.194384,8.530546,36.035967,-12.052692
3.534699,2.287292,7.841739,-15.070242,7.736391,-8.751419,-10.856147
3.568076,1.538778,1.515284,-8.659239,-1.742891,8.079372,-13.499889
3.601366,0.63688,3.833852,-8.847789,1.460665,2.944674,-8.491938
3.634704,-1.4249,3.778035,-9.60169,-0.312903,3.740026,-8.360851
3.668073,0.699581,3.430265,-8.8433,-0.153833,4.206613,-8.825193
3.70137,1.178438,3.821582,-9.226685,0.132434,4.16606,-8.986658
3.734701,-0.553529,4.107699,-9.590467,0.276989,3.838791,-9.332782
3.768059,0.109838,3.611633,-8.977829,-0.408376,4.037816,-8.657892
3.801369,0.558318,3.375346,-8.752915,0.323528,3.648295,-8.882057
3.834712,0.698234,3.94818,-9.439477,0.082453,3.870814,-8.962864
3.868063,0.156975,3.962545,-9.549914,-0.051627,3.890417,-8.879962
3.90137,0.330711,3.144148,-8.699343,-0.174334,3.779981,-8.913931
3.934699,0.374556,3.462439,-8.876221,0.430822,3.882037,-9.141388
3.968148,0.316944,3.991726,-9.695666,0.017059,3.930522,-9.065519
4.001369,0.235239,3.686753,-9.163386,0.289709,4.014471,-8.975584
4.034701,0.38548,3.367415,-8.706376,0.266215,3.930222,-8.85153
4.068086,0.369169,3.825772,-9.526569,0.614284,4.094081,-8.878615
4.101368,0.286566,3.682863,-9.156053,0.274894,4.038115,-8.884002
4.1347,0.432917,3.801529,-9.380069,-0.058061,3.917203,-8.925902
4.168032,0.360191,3.539505,-9.096196,-0.114626,3.977061,-9.004465
4.201408,0.093527,3.614476,-9.050555,0.483197,4.12835,-8.940867
4.234699,-0.197529,3.626746,-9.188975,0.531532,4.26213,-8.99414
4.268035,1.321198,3.936208,-9.242397,0.166104,4.488839,-9.279509
4.301408,0.01257,3.807515,-9.354181,0.378148,4.268715,-9.349392
4.334694,0.575976,3.614625,-8.800951,-1.342597,4.45921,-10.187692
4.368034,-0.140814,4.885094,-10.559704,-1.191457,3.83909,-10.38971
4.401387,-0.293001,5.971651,-10.015153,0.623413,3.467227,-8.376264
4.434694,0.152187,2.667984,-8.527553,-1.771324,5.924963,-9.104875
4.468033,2.323207,0.534674,-12.350182,-4.418507,7.015261,-12.769332
4.501387,-3.01351,1.63874,-11.865339,-4.597331,0.998567,-14.640168
4.534729,-3.822031,0.941254,-11.734102,-7.772904,-11.241477,-12.461965
4.568034,-1.023408,-3.060797,-10.320275,-2.332634,-2.885266,-14.495763
4.601449,0.253645,1.6974,-18.730359,-1.336611,-1.157189,-7.584503
4.634686,-0.126897,4.240582,-11.251952,-0.674441,5.168518,-12.481569
4.668037,0.927936,3.058103,-6.99087,-1.082068,4.790071,-10.859439
4.701367,1.481166,1.836418,-4.930137,-2.583286,6.816536,-10.04194
4.734684,2.8501,6.770445,-14.159814,1.681987,7.012119,-9.460726
4.768034,2.479284,4.621722,-10.361577,3.950424,8.95613,-11.514426
4.801375,-0.543802,4.477317,-6.66779,0.119116,10.847318,-3.351852
4.835025,-0.801338,8.248768,-13.586981,2.467014,8.72598,-0.992582
4.868044,0.2303,4.419405,-7.27998,7.694341,24.904178,-15.964658
4.901367,0.432318,4.904548,-6.815937,5.279104,15.002454,-1.157339
4.934749,0.680875,4.755354,-7.590938,12.499975,20.89255,2.808648
4.968041,0.372461,3.305912,-7.162959,-5.972549,-3.309204,-7.981955
5.001368,-2.415237,5.183482,-8.630657,-1.996387,7.717236,-9.947814
5.034689,-1.677797,2.644191,-3.62106,3.4367,4.822992,-8.419511
5.067763,0.29345,5.410191,-9.914294,0.062251,3.663708,-8.864699
5.101367,0.048335,6.780621,-8.281241,0.145902,4.766876,-9.655711
5.134688,0.13842,4.494077,-2.273525,0.156676,3.708601,-8.540871
5.168034,1.758454,5.455832,-6.659859,-0.87586,4.201675,-8.758452
5.20139,3.99846,11.199727,-12.20847,-0.521805,4.179228,-8.402601
5.234677,-1.048698,6.225446,-6.397835,-0.11717,4.674247,-8.556733
5.268071,-0.984651,5.125869,-5.365149,0.249305,4.130594,-8.929644
5.301374,1.686626,8.428489,-12.562376,-0.121809,4.104706,-8.796162
5.334679,-5.09639,1.910791,5.734168,-0.766621,4.432723,-8.752466
5.36812,-10.41051,-0.320386,-17.903133,-0.211894,4.335306,-8.580227
5.401457,2.190174,3.918999,-9.925966,-0.15488,4.623518,-8.599831
5.434786,2.497092,3.195475,-7.378894,1.193103,4.246268,-9.160543
5.468118,0.70407,4.248363,-10.093866,-0.045342,4.492431,-8.808133
5.501463,-0.950382,3.000191,-8.655049,-0.062401,4.708216,-8.501216
5.534786,1.765637,4.318396,-9.584481,-0.905639,4.497818,-8.594144
5.568144,0.409124,3.290948,-8.327331,0.496964,4.661827,-8.73421
5.601455,-0.174334,3.873508,-9.670526,0.254692,4.423296,-8.923957
5.634794,0.531532,3.708601,-9.233119,-0.161315,4.397857,-9.07779
5.668122,0.553978,3.63797,-8.980373,0.257236,4.64372,-9.430349
5.701447,0.248707,3.84747,-9.623987,0.486938,4.441852,-9.398176
5.7348,0.28911,3.595172,-8.893131,-0.698384,4.61005,-9.029306
5.768126,0.218778,3.583649,-9.23716,-0.059109,4.414467,-9.357173
5.801453,1.041365,3.757983,-9.029156,0.486938,7.520306,-10.403178
5.834687,0.044444,3.599811,-9.561436,-1.633951,5.497134,-9.606179
5.868129,0.648702,3.357688,-8.773716,-5.025459,5.277308,-15.575436
5.901442,-0.0208,3.627644,-9.348195,-6.299369,-1.283787,-12.834127
5.934796,0.697186,3.639167,-9.138096,-2.584483,-2.083628,-11.965001
5.968121,0.150391,3.7092,-9.292228,-5.575247,-5.669073,-11.615286
6.001458,0.68746,3.568386,-8.983365,-6.003076,-6.573066,-11.901702
6.0347,-0.145902,5.562079,-12.820061,-6.019238,-1.194151,-12.56896
6.068156,-0.220574,2.454444,-9.547819,-3.752147,2.675167,-10.10479
6.101384,-0.598572,1.667621,-8.921264,-1.890589,3.633331,-8.951491
6.134781,0.848924,-1.720744,-13.19761,2.90846,10.554467,-11.642521
6.168126,-1.413677,-0.253346,-11.664069,10.457348,16.662892,2.163238
6.201428,-0.153384,1.605519,-12.347488,11.347574,25.951978,0.202168
6.234785,0.59947,-0.092928,-9.310186,13.454397,24.084434,1.737355
6.26811,0.392962,1.928748,-9.874639,13.651776,15.471584,-4.025096
6.30136,0.210248,3.949826,-11.129096,-3.807365,-1.107657,-6.18609
6.334787,0.055966,1.451237,-7.47676,-2.966971,7.114475,-10.933063
6.368125,0.313502,1.81891,-7.530482,2.225191,4.20796,-8.947301
6.401457,1.539227,4.997925,-13.226192,-1.203878,4.199879,-8.734509
6.434786,2.716468,5.736113,-10.804221,0.512377,4.163665,-8.67555
6.468112,2.323356,3.372054,-6.154665,0.713647,4.139274,-8.858414
6.501455,2.16249,3.844327,-10.495208,0.577921,4.145259,-8.80948
6.534533,2.17506,6.457692,-11.5044,0.281778,4.174739,-9.021973
6.568061,1.979477,6.555708,-10.471564,0.806426,4.020756,-9.020178
6.601367,-0.718585,2.982534,-4.231603,0.283274,3.896852,-9.118942
6.634713,-0.066142,4.399802,-7.663215,0.471525,3.640663,-9.051453
6.668049,0.618624,6.351445,-10.047327,0.357647,3.852558,-9.084973
6.701376,-1.11469,3.793748,-6.012654,-0.130638,3.931868,-8.916625
6.734749,-1.863803,2.926417,-4.362092,0.879751,3.943241,-8.869786
6.768044,-0.883642,5.404205,-3.848218,0.41077,3.47845,-8.946254
6.801368,0.458805,9.265891,-13.494202,0.375005,3.691093,-9.098291
6.834678,-2.475693,8.450487,-8.808433,0.467784,3.959702,-8.927549
6.868041,-1.389285,7.142009,-6.267196,0.490829,3.833104,-8.967803
6.90139,0.296293,0.543802,-8.331371,-0.260079,4.100067,-8.830131
6.934707,-1.183526,6.681258,-20.941333,0.115973,4.071485,-8.941765
6.968038,-3.177219,0.739984,-12.17914,0.497264,4.064153,-8.677944
7.001383,2.23402,4.319743,-10.554467,0.053123,3.776389,-9.198851
7.034695,1.574543,3.651587,-9.827651,0.097418,4.353413,-9.059534
7.068033,-0.898307,2.974303,-8.561672,-0.17164,4.503654,-9.514747
7.10138,0.923596,3.415301,-9.058636,0.250652,4.437362,-9.546921
7.134698,0.71664,3.624951,-9.087218,-0.246462,4.047692,-8.936826
7.168035,0.556223,3.506434,-9.146476,-0.428877,3.764568,-9.085871
7.201346,-0.409273,3.314292,-9.135103,-0.736094,6.959893,-9.495892
7.234702,0.987793,3.729102,-9.349691,-0.640322,6.778676,-9.347896
7.26813,0.520757,3.290199,-9.070308,-4.065051,7.033667,-11.319741
7.301377,0.12555,3.228696,-9.019579,-2.9336,7.634933,-19.685081
7.334716,0.403288,3.256231,-9.085871,-11.763582,-5.331928,-15.120672
7.368058,0.297939,3.67538,-9.403712,-8.694405,-12.678648,-14.305417
7.401442,0.060605,3.47441,-9.420173,-4.567552,-6.418785,-14.462692
7.4347,0.46928,3.52903,-9.182091,-0.002544,2.092757,-15.429535
7.468035,0.120014,3.339282,-9.390544,-0.552631,3.725062,-13.385412
7.501468,0.313053,3.401833,-9.114303,-1.648018,3.072469,-5.867799
7.534739,0.139617,3.764418,-9.310485,0.165804,-0.358245,-6.825215
7.568039,0.41092,3.421586,-9.030204,8.430584,14.697631,5.441317
7.601568,0.685365,3.676578,-9.653317,27.698909,32.446931,9.695217
7.634709,0.755847,3.896104,-9.380069,16.281153,45.395684,9.335775
7.668035,0.780089,4.474025,-9.782908,-2.136452,-3.439992,1.514686
7.701429,0.215336,3.686903,-8.930541,-3.157466,6.546131,-10.522293
7.734688,0.723524,2.91699,-9.919831,3.682414,4.783187,-9.326347
7.768035,2.549766,-5.216403,-20.86741,-0.223716,4.784085,-8.655198
7.801446,0.491577,-5.025908,-11.341439,1.188913,4.212748,-8.861107
7.834707,2.047415,-0.735196,-10.275383,0.552781,4.075825,-8.706077
7.868035,4.117725,1.591453,-10.989179,0.674441,3.700371,-9.366152
7.901383,-0.371414,2.777822,-9.066268,0.191842,3.490721,-9.068662
7.934706,-3.662361,2.349993,-9.185084,-1.031788,4.847683,-8.882207
7.968132,-4.194193,0.517765,-7.688655,0.82124,4.142566,-9.08602
8.001377,-1.574094,5.16747,-14.116717,0.401193,3.826221,-9.09021
8.034739,0.23883,5.521077,-11.644466,0.235239,4.084654,-8.990997
8.068034,1.259245,4.751612,-4.858009,0.262623,4.029885,-8.923957
8.101378,1.738851,8.03418,-11.456065,0.145603,3.981999,-8.852428
8.13474,1.944311,5.391037,-7.821837,0.240177,4.049338,-8.889689
8.168039,1.878318,4.16187,-6.115608,0.170892,4.104856,-9.014491
8.201368,2.155008,4.2331,-7.018404,-0.098764,4.039162,-8.869786
8.234659,2.962481,9.395632,-11.849177,0.665911,3.963892,-9.027211
8.268042,1.903309,6.440932,-7.373656,-0.408974,4.132091,-8.892382
8.301368,2.022424,4.357902,-4.038863,0.124204,4.118473,-8.921563
8.33478,3.169438,4.763434,-4.679634,0.215785,4.233549,-8.907347
8.368034,4.419854,6.301315,-4.280387,0.850122,4.183269,-9.00641
8.401354,2.36361,7.733697,-7.248405,0.006285,4.06535,-9.188676
8.434837,-0.899953,6.673477,-6.245199,0.307816,4.275299,-9.144232
8.468034,1.020715,9.071804,-11.476716,-0.356749,3.987386,-10.116162
8.501374,-1.514387,8.986059,-6.297125,-0.089187,3.900593,-9.567871
8.534703,-0.66232,7.138567,-10.022935,-0.461499,3.932916,-8.831478
8.56804,-8.58307,8.491339,-1.309974,-1.250416,4.192696,-10.216274
8.601366,-8.769226,2.43933,-5.627772,-0.211595,5.808241,-8.779701
8.6347,3.798387,5.64543,-9.354181,-2.930009,6.316129,-11.038412
8.668042,3.283765,1.591004,-7.336545,-3.647547,-0.249455,-26.188713
8.701368,0.466886,4.755054,-11.356254,-3.911667,-9.947365,-14.931224
8.734535,-0.438005,3.303518,-8.465451,-10.430712,-2.524028,-10.886824
8.76809,2.495446,3.803924,-8.895525,-5.997989,-3.750202,-13.429108
8.801375,-0.615631,3.598614,-9.223842,-3.536811,-1.91513,-12.169713
8.834714,0.514921,3.974666,-9.148272,-1.469045,3.57482,-14.753597
8.868053,0.460002,3.842681,-9.155455,-1.771623,5.125869,-13.938492
8.901377,0.424537,3.691691,-9.062377,-0.326371,3.524241,-5.890395
8.934701,0.304523,3.84313,-9.259307,2.453845,1.13145,-2.037389
8.968058,0.359143,3.730898,-9.064771,1.566163,26.082167,-6.290391
9.001375,0.307367,3.778634,-8.983365,16.019726,34.078488,3.780729
9.0347,0.324725,3.630039,-9.118194,22.619429,37.884656,15.18846
9.068033,0.412416,3.828465,-9.151265,-2.832292,-10.470068,1.499871
9.101375,-0.004789,3.66311,-9.108916,-0.669802,9.445762,-12.858669
9.134741,0.307516,4.118324,-9.229378,1.717003,3.310551,-8.852428
9.168039,0.283573,3.895356,-9.173711,-0.54051,4.58491,-8.651308
9.201406,0.562209,3.807216,-8.932786,0.254094,4.706271,-8.51633
9.234702,0.806575,4.13224,-9.269782,0.676236,4.172943,-8.581574
9.268048,0.333255,4.281285,-9.234317,-0.46105,4.030034,-9.215611
9.30137,0.604558,4.29984,-9.466562,-0.84249,4.185064,-8.967354
9.334704,0.885138,4.42988,-9.380518,0.748514,4.068792,-8.950444
9.368032,-0.168947,2.726794,-10.510322,-0.182864,4.142566,-8.615094
9.401387,-2.61516,-4.895419,-20.748892,0.245564,3.951023,-8.99384
9.4347,-8.286478,-1.023258,-13.457839,0.777245,4.018811,-9.028857
9.468032,-3.107934,0.638826,-9.446959,0.685814,4.171746,-8.589804
9.501372,1.631407,4.340094,-9.982382,-1.024306,4.145708,-8.934881
9.534706,2.929111,4.529542,-9.397876,0.724122,4.30014,-8.821152
9.568034,0.334302,1.47937,-8.685726,-0.642417,4.257192,-8.754561
9.601343,-0.690453,5.50267,-12.253213,-0.137522,4.305228,-8.786286
9.634711,-0.663517,3.66715,-13.934302,-0.49861,4.404291,-8.829383
9.66804,-0.278186,2.768395,-7.27968,0.313652,4.250159,-8.754711
9.701359,2.383662,4.413868,-4.177582,-0.349566,4.293107,-8.705179
9.734702,2.814485,5.899972,-9.96622,-0.236585,4.239534,-8.705927
9.768114,1.565116,7.495316,-11.260482,0.357647,4.116677,-8.806487
9.801378,-0.981508,6.696672,-7.190942,0.025439,4.007588,-9.142585
9.834656,-1.959574,4.829277,-4.796505,0.273098,4.113385,-9.031101
9.868049,-2.913249,6.094209,-6.735579,-0.337295,4.067445,-8.97304
9.901415,-3.309803,5.744493,-8.584717,0.21788,3.931868,-8.775511
9.934701,-1.743041,4.447538,-6.635767,-0.652593,3.980353,-9.14468
9.968012,-0.364381,3.338384,-3.718627,-0.235987,4.275898,-9.426458
10.001404,-4.647311,10.516158,-12.841161,-0.562209,3.883983,-9.533004
10.034768,-4.479562,4.377655,-3.00902,-0.165056,3.255183,-9.90367
10.068106,-3.756188,5.413783,-3.255931,0.442195,4.089592,-10.797487
10.101367,-2.399225,6.098249,-3.858094,-0.085296,4.451279,-10.990975
10.134691,-1.508251,6.784063,-5.25965,-1.760699,6.182798,-16.975197
10.168104,-0.457458,7.433813,-6.850953,-2.352537,-4.347128,-17.801375
10.201368,-0.196481,1.016076,-13.257018,0.66202,-6.055152,-16.136747
10.234687,-14.098311,14.175078,4.80698,-1.263735,-2.590319,-11.804135
10.268514,0.488584,8.680488,-11.995528,-5.616848,-1.18203,-6.478492
10.301377,2.696716,2.632369,-8.494632,-3.285261,3.50793,-14.348065
10.334703,4.583863,5.53649,-9.672172,-3.110478,4.112787,-12.741349
10.368093,1.246526,2.188977,-8.649512,-0.573581,2.806404,-7.17927
10.400873,-5.365298,1.89433,-8.69635,2.205737,8.251611,-18.168001
10.434701,0.417205,4.094231,-11.620523,-1.196246,20.640102,5.967013
10.468045,2.4516,4.084504,-10.176469,14.804626,26.1941,-4.148102
10.501369,-0.200671,3.484586,-9.599745,13.105131,35.615321,7.023941
10.534698,0.361837,2.988968,-8.740345,12.024709,-2.392791,-21.732645
10.568096,0.866582,3.828615,-9.63925,-9.759264,9.680851,-12.65291
10.601396,0.61623,3.773995,-9.830943,3.670293,3.199067,-8.481912
10.634702,0.942751,2.900679,-8.580078,-0.521655,4.701931,-9.477337
10.668034,-0.177776,3.242613,-9.462971,1.72269,4.172644,-8.483708
10.701375,0.897858,3.504937,-9.265442,-1.08985,4.102611,-8.98576
10.734745,0.432917,3.297233,-9.101434,1.041066,4.345482,-8.785537
10.768041,0.24302,3.672088,-9.428553,-0.449378,4.550043,-8.881758
10.801407,-0.433665,3.454358,-9.297616,-0.896361,4.068642,-8.81816
10.834721,0.936765,3.544144,-9.221148,-0.432618,4.628307,-8.724483
10.868039,0.394459,3.908225,-9.395781,-0.029031,4.660181,-8.602973
10.901369,1.266129,3.785817,-9.0317,0,4.403693,-8.72164
10.934702,-0.024691,4.758346,-10.334192,-0.179572,4.379899,-8.589356
10.968041,1.976634,4.954528,-9.370791,-0.249006,4.678886,-8.648464
11.001361,-1.192205,1.445252,-13.117551,-0.226709,4.292059,-8.664327
11.0347,-0.381889,5.089656,-17.448966,0.211894,4.423595,-8.81786
11.068041,-5.329534,3.706357,-16.496489,0.18436,4.491533,-8.930092
11.101414,-3.325066,-2.134357,-6.81459,-0.357796,4.492581,-8.626467
11.134707,0.397003,-0.621018,-9.536745,-0.681025,4.667663,-8.542966
11.168032,2.855636,2.296271,-11.145407,-0.072876,4.53493,-8.615992
11.201344,3.630488,3.962845,-6.022979,0.13827,4.918913,-8.686025
11.234707,2.758368,3.192034,-8.645472,-0.017658,4.551989,-8.818908
11.268032,1.16512,2.112061,-5.883661,0.062401,4.868035,-8.824295
11.301372,1.794069,9.98328,-21.775593,-0.164158,4.998523,-8.975883
11.33474,-0.380542,5.388942,-5.903564,-0.380692,4.699986,-8.698744
11.368038,-0.290158,5.128713,-6.196714,-0.680277,4.708964,-8.697248
11.401366,0.223567,5.418721,-9.514747,-0.59079,2.966821,-9.972505
11.434721,1.107358,7.349115,-10.775639,-0.72936,5.776068,-9.439327
11.468044,0.372012,6.027768,-7.10819,-2.355979,6.799476,-10.988132
11.501366,-0.06719,4.266171,-4.124309,-3.65443,5.429794,-18.806228
11.534698,0.039805,7.483195,-10.304413,-6.733933,-8.862155,-16.061477
11.56804,-0.395506,5.047457,-6.072511,-5.64528,-7.386974,-12.872586
11.601366,-0.717388,6.407711,-8.14746,-2.139146,-1.685728,-12.58976
11.633913,-1.006349,5.651266,-7.517014,-1.373423,2.052503,-11.187157
11.668073,-1.708922,6.150924,-6.402473,-2.248086,3.886078,-12.008996
11.701362,-1.623476,5.263691,-6.159154,-2.501731,4.16157,-11.146155
11.734759,-0.504746,5.992153,-6.935352,-1.287977,2.857881,-6.317177
11.76808,0.580764,6.955703,-7.085743,-0.086494,3.552823,-7.737438
11.801366,-1.267176,8.744685,-7.520606,8.138781,22.524705,-6.68051
11.834701,-9.81553,18.758492,-9.348793,10.369508,33.605017,2.002971
11.868128,-4.45517,-0.266963,-17.444776,16.151412,30.488553,6.445421
11.901369,1.826991,3.929474,-10.222259,12.875728,3.252041,-15.956727
11.934705,1.965261,3.647248,-10.098954,-5.546067,6.083884,-13.10139
11.968111,2.985826,3.152229,-8.136835,3.057056,3.853007,-9.544975
12.001398,-1.807986,3.59158,-10.221361,0.69135,4.006989,-8.603871
12.034787,0.350164,3.61283,-8.731965,0.00838,4.467141,-8.530247
12.068124,1.411133,3.699772,-9.172065,0.315148,3.785218,-8.747977
12.101453,0.487537,3.044037,-9.233568,1.016973,4.025096,-9.118792
12.134775,0.433815,3.096711,-8.812623,0.832613,4.033925,-9.108916
12.168118,0.122707,3.786565,-10.168538,-1.611655,4.545853,-8.907796
12.201455,1.235303,3.324767,-8.843599,0.820193,4.0863,-9.026014
12.234793,-0.011822,3.181409,-9.171467,0.207405,4.096476,-8.846442
12.268106,0.188101,3.204903,-9.262449,-0.116422,3.894158,-8.88071
12.301435,0.304074,3.437897,-9.511605,-0.128244,4.159625,-8.647118
12.334793,1.425798,3.267005,-8.93548,0.154282,4.13239,-8.819656
12.368121,-0.232994,3.299477,-9.377375,0.208453,4.037367,-8.954484
12.401465,0.72502,3.19368,-9.020477,0.209051,4.128499,-8.871133
12.43479,-0.060905,3.398391,-9.368995,0.106546,4.143164,-8.787483
12.468126,0.178674,3.285561,-9.352235,0.138869,4.155734,-8.92291
12.501454,0.172688,3.36981,-9.38815,0.434413,4.384987,-8.766832
12.534801,1.107208,3.526486,-9.162338,-0.231647,4.324083,-8.848088
12.568127,0.485591,3.976013,-9.556498,-0.178225,4.386035,-8.93548
12.601454,0.681923,5.30155,-11.279936,0.593933,4.653746,-9.000724
12.634721,1.639638,-0.404186,-9.439178,-0.405083,4.373614,-9.32081
12.668126,0.924494,-0.401941,-12.994245,0.192142,4.557526,-9.263198
12.701476,-5.950402,-2.357625,-14.066886,-0.410471,4.447388,-9.045467
12.734685,-6.165738,3.641112,-11.074326,-0.356599,4.364636,-8.859162
12.768111,-0.678631,-0.088439,-6.908267,-0.738488,3.156119,-9.478384
12.801439,3.34871,2.15441,-9.50936,-0.723075,6.669736,-9.754475
12.83474,2.493949,4.192397,-13.538497,-2.344306,6.297274,-11.137925
12.868121,1.512441,3.850912,-8.953886,-1.960921,-0.763628,-21.233586
12.90146,1.249519,3.275385,-8.350376,-6.819079,-7.35944,-16.071054
12.934832,-0.079311,4.395762,-10.453308,-5.098036,-2.758967,-12.150558
12.968135,-1.168711,7.504594,-12.943816,-2.998695,-4.32932,-13.179503
13.001462,-1.010838,4.671254,-6.832547,-3.616421,2.733827,-15.093437
13.034967,-0.46943,5.028003,-6.497646,-4.626511,3.64635,-10.738976
13.067876,-1.400059,5.096689,-11.027338,-3.319081,4.019858,-9.708834
13.101456,-0.495617,5.93035,-7.072275,-1.21944,9.801613,-10.07965
13.134632,0.260678,4.542112,-5.463763,-0.502052,6.587881,-1.872183
13.168144,-1.366689,4.558723,-6.483131,6.244301,11.807277,-2.541386
13.201368,-3.362627,6.48777,-9.099788,7.208001,24.948921,-0.577771
13.234703,-4.007588,4.870429,-6.976653,17.332394,45.616408,8.775062
13.268071,-2.765701,4.868334,-5.876179,-5.228225,-13.427761,8.715056
13.301374,-2.140343,4.960364,-4.996728,-5.196052,8.655947,-9.888705
13.334684,-1.938624,6.50887,-7.706911,1.082966,3.185,-9.896936
13.368071,-1.045406,5.331329,-6.079993,3.304565,3.707404,-9.226834
13.401372,0.394608,5.682092,-6.46682,-1.451686,4.121017,-8.942363
13.434702,0.864637,4.947495,-5.443561,1.373273,4.246568,-8.689916
13.468069,-11.973381,3.933215,-18.979215,-0.771559,4.55139,-8.817112
13.501374,8.333616,7.263519,-11.805482,0.041152,4.033177,-8.853775
13.534705,1.882209,-0.641819,-5.753173,-0.463743,4.521911,-8.665524
13.568056,2.659604,6.93221,-15.36444,-0.37321,4.16157,-8.752466
13.60137,-0.236585,2.480781,-8.726428,0.432019,4.389028,-8.689616
13.634702,0.253196,3.510175,-10.0584,-0.136025,3.890866,-8.860808
13.668034,0.480504,3.168689,-9.445164,0.754051,4.103958,-8.766383
13.701375,1.483859,3.287207,-8.690813,0.089187,4.082409,-8.923658
13.734702,0.269956,3.457051,-9.409698,0.316345,3.905232,-9.045766
13.768019,0.857454,3.446127,-9.317817,-0.294198,4.226366,-8.904504
13.801369,0.715593,3.432809,-9.260504,0.36468,4.210204,-8.870834
13.834731,0.596028,3.351852,-9.089762,0.389221,4.092286,-9.006859
13.868039,0.187203,3.383726,-9.35029,0.233892,4.156931,-8.974686
13.901406,0.705566,3.261318,-9.074947,0.282526,4.188057,-8.703982
13.934727,0.75869,3.526336,-9.457434,0.304074,4.142117,-8.93548
13.968049,0.623861,3.3948,-9.226236,0.537966,4.196138,-8.83896
14.001406,0.775749,3.342575,-9.088864,0.122408,4.373315,-9.071505
14.034712,0.344927,3.268801,-9.282202,0.042199,4.2331,-9.59331
14.068034,0.473021,3.352451,-9.13211,0.675039,4.998074,-9.362411
14.101369,0.458057,3.558509,-9.247934,0.194985,4.40474,-9.116697
14.134707,0.48619,3.559557,-9.263796,0.388174,4.469984,-9.027809
14.168033,0.776348,3.537859,-9.191369,-0.688507,4.143314,-9.712725
14.201367,1.027748,3.480695,-9.104875,0.559365,3.356491,-9.977443
14.234708,0.885288,4.452177,-9.801463,-0.791013,5.819315,-11.389774
14.268032,0.690303,4.292059,-9.554104,-2.919384,3.254734,-13.774783
14.301368,-2.054298,-2.433194,-7.73654,-5.528858,-0.340737,-22.903302
14.334708,1.4041,-0.915665,-13.13476,-1.077579,-7.80792,-12.776964
14.368035,-7.314847,-1.748129,-13.594762,-7.478257,-1.365642,-9.50113
14.401355,-13.387806,8.036874,-20.509613,-4.606608,1.26164,-11.131041
14.434733,-6.846165,-0.604109,-10.967631,-2.020928,6.094209,-13.814738
14.468036,1.723139,1.098828,-10.345565,-2.926717,5.661891,-8.924556
14.501375,3.929175,3.39884,-11.874467,-3.304416,3.86423,-4.106801
14.534689,5.073046,6.467419,-11.483899,7.375003,12.826346,-17.052861
14.568017,3.500597,5.447303,-9.61411,-4.695347,12.895182,-3.954764
14.601376,2.492453,4.330368,-6.867713,6.879685,22.015321,-4.004296
14.634739,1.037774,5.845951,-11.843192,31.66759,48.534146,21.524492
14.668039,1.038372,5.430991,-7.72816,1.0686,-15.273307,-2.63207
14.701366,0.119864,6.014898,-8.259842,-2.126127,12.035633,-17.630932
14.734701,-0.753901,5.568663,-4.49273,-1.070246,2.174312,-8.945057
14.768038,-2.140942,8.661932,-7.365276,-1.721193,3.936807,-8.654301
14.801368,-2.725297,7.060603,-7.159667,1.110051,3.806318,-8.797509
14.834707,-1.429689,5.629268,-5.17585,0.189448,3.958954,-9.085572
14.868035,-0.105498,6.389903,-8.211806,0.805827,3.709649,-8.793468
14.901452,-1.936978,7.577769,-10.310698,0.995275,3.691392,-9.091108
14.934713,-4.62711,5.379365,-6.109173,0.46943,3.927828,-9.01075
14.968039,-2.781114,4.349821,-4.779147,-0.723374,4.272156,-9.072852
15.001366,-0.449827,3.691841,-4.277095,0.130788,3.816793,-8.736604
15.034683,0.711253,7.856853,-10.170633,0.468532,3.630637,-8.893879
15.068041,-0.524199,7.01182,-8.503161,0.046838,3.684509,-8.950743
15.1014,-9.456536,13.462478,-17.905078,0.416606,4.011329,-9.038434
15.13471,-5.2387,6.979497,-15.247269,0.454017,3.656376,-9.202892
15.168033,-2.811342,2.803261,-6.390801,0.587498,3.799434,-9.057588
15.201457,1.572897,4.486894,-8.074434,0.333704,3.955512,-8.719246
15.23471,1.759352,3.087433,-9.68549,0.297789,4.074179,-8.91438
15.267949,2.256616,3.736584,-9.063724,0.555325,3.901641,-8.829981
15.301498,-1.189063,2.872396,-9.31677,0.518812,3.989032,-8.932038
15.334708,1.925456,3.6462,-9.573408,0.910278,3.92708,-9.136749
15.368033,0.847727,3.22286,-9.528814,2.408354,3.408417,-8.663129
15.401353,1.183526,3.409914,-9.296867,-2.423318,4.223971,-9.042774
15.434725,0.584056,3.271793,-9.312879,1.037475,4.442301,-8.705778
15.468041,0.800889,3.459146,-9.344903,1.674505,4.778099,-9.07345
15.501352,0.862392,3.479797,-9.310934,-0.951729,4.382294,-10.00004
15.534702,0.721578,3.591131,-9.347596,0.165505,3.993671,-10.616569
15.568012,0.603809,3.397344,-9.092006,-0.401193,3.000042,-10.104041
15.60135,0.322481,3.41994,-9.339366,-1.172752,4.919213,-10.433555
15.634701,0.809568,3.595471,-9.214564,-1.256253,2.37618,-13.267493
15.668115,0.727564,3.55402,-9.143334,-2.408653,-1.213904,-13.176361
15.701348,0.640621,3.810658,-9.284597,-2.489909,-1.442708,-10.794195
15.734701,0.526743,3.981251,-9.393088,-3.261019,-2.42676,-11.131041
15.768128,0.318141,3.737782,-9.204089,-4.306125,-1.958976,-12.056283
15.801562,0.760785,3.781178,-9.251825,-3.364123,1.272264,-11.399351
15.834499,1.196994,4.209007,-9.570115,-3.935161,3.594873,-10.266404
15.868066,0.139767,4.580122,-9.215312,-4.037965,5.436528,-11.383938
15.901357,-0.018855,2.780965,-8.880261,-4.694748,1.331523,-7.505791
15.934709,1.28229,4.888386,-11.264522,1.713561,12.914336,-14.492321
15.968033,-0.497862,-1.908995,-14.347018,4.91173,6.943433,0.993629
16.001356,-3.160309,1.231561,-14.40463,5.091003,30.557688,-2.31782
16.034725,-3.992773,0.116123,-13.740964,12.681791,-2.341613,-21.269201
16.06808,-0.51552,0.927637,-10.306508,-8.21884,5.438773,-16.810739
16.101415,3.173777,1.140728,-7.326968,-2.058339,1.021912,-8.070244
16.134709,2.240454,3.224057,-11.326175,1.347834,3.736584,-8.526505
16.168035,0.414511,3.809909,-10.991125,1.366689,4.054426,-8.75501
16.201369,0.415708,6.079095,-8.390929,-0.183013,4.14496,-8.610006
16.234706,0.020501,6.330346,-9.229229,0.312305,4.479562,-8.583819
16.268037,-1.036577,6.298921,-10.724162,-0.076468,4.322885,-8.710566
16.301374,-0.991983,9.273074,-12.381158,-0.174933,4.298643,-8.798856
16.334701,-1.360554,6.454849,-6.586534,0.263521,4.407134,-8.845844
16.368007,-1.032536,5.418571,-6.627836,0.059259,4.46355,-8.620332
16.401337,-0.792958,6.770296,-7.946489,-0.091432,4.4634,-8.656545
16.4347,-2.405959,7.605752,-8.689916,-0.05447,4.323933,-8.863801
16.468043,-3.024583,5.805697,-6.205843,0.421843,4.407434,-8.736455
16.501368,-1.373273,3.995616,-3.891465,0.072726,4.19928,-8.597137
16.534731,-1.681388,6.969471,-7.628498,-0.11298,4.439607,-8.666272
16.568033,-2.683397,7.680275,-8.76354,-0.062551,4.311962,-8.696051
16.601366,-0.807773,5.17585,-4.562613,0.268759,4.510538,-8.712063
16.634683,1.137735,4.89931,-2.278464,-0.627004,4.377804,-8.817112
16.668034,1.865748,5.10881,-2.303155,0.189897,4.715997,-8.709968
16.701376,1.819958,6.648786,-1.08536,0.095323,4.529991,-8.859611
16.7347,-16.150215,51.195546,-60.217669,0.130489,4.295351,-8.810079
16.768041,-1.684531,-4.63968,1.692611,-0.140814,4.526998,-8.902708
16.8014,-3.874106,7.835005,-5.075889,-0.210847,4.73575,-8.604021
16.834724,0.003591,2.078092,-6.02687,-0.42334,4.989245,-8.374917
16.868036,1.134443,3.703064,-8.414124,-0.642417,5.125869,-8.29815
16.901366,1.610457,3.624053,-7.803281,-0.089486,5.485312,-8.072788
16.934721,-1.867694,3.09282,-9.586127,-0.697935,5.080977,-8.75516
16.968073,0.462546,4.092435,-9.91594,-1.224528,4.838854,-10.379684
17.001376,0.969537,3.601307,-9.164134,-1.467249,6.003376,-9.724996
17.034698,0.239878,3.670293,-9.494546,-3.39914,7.970881,-12.619839
17.06812,0.251999,3.54564,-9.335625,-4.965752,-4.244921,-22.479812
17.101408,0.47362,3.37804,-9.128369,-2.147077,-10.173925,-18.632492
17.134703,1.062615,3.7508,-9.268585,-1.501068,-4.415365,-12.89997
17.168019,0.584206,3.557911,-9.155904,-2.392342,1.044358,-10.111823
17.201372,0.420646,3.394052,-9.127621,-0.902946,2.701055,-11.910531
17.2347,0.840844,3.76352,-9.186431,-1.888045,5.140086,-12.860464
17.268042,0.854162,3.575269,-9.170868,0.001048,5.334921,-11.979068
17.301366,0.438155,3.837593,-9.319763,-2.325601,1.404998,-5.56133
17.334707,1.668369,3.866624,-8.857516,2.35134,8.42834,-0.895014
17.368036,0.016311,3.648445,-9.42137,6.829704,22.755754,-0.013019
17.400705,0.697635,3.793,-9.351637,10.180958,46.936857,-4.151095
17.434702,0.424986,3.500597,-9.0947,18.133583,41.68409,10.677772
17.468033,1.293663,3.650689,-9.058486,-2.119393,-7.168346,-0.065244
17.501368,0.447732,3.550578,-9.501579,-1.874278,11.470282,-8.915727
17.534699,1.277203,3.938453,-9.162039,3.135618,4.812966,-9.418078
17.568034,-0.318141,4.197185,-9.331734,-0.449527,3.923788,-9.563232
17.600784,0.057613,4.276945,-9.692074,0.841442,3.558809,-9.081382
17.634705,0.346274,2.275171,-8.133094,-0.681923,3.960301,-8.923807
17.668047,1.29097,3.799734,-10.275682,0.273847,3.731945,-8.939071
17.701428,0.953076,7.391763,-10.349007,0.244217,3.588139,-9.397577
17.734705,-1.950297,0.316345,-10.859738,0.061952,3.508828,-8.884152
17.768035,-1.865299,0.788618,-13.933554,0.925841,3.772499,-9.119989
17.801366,-1.39138,1.476527,-13.212275,0.888879,3.636773,-8.993391
17.834709,-2.293727,4.268415,-14.570883,0.155329,3.356641,-9.067016
17.868036,-1.025952,4.100965,-12.230168,0.224015,3.645003,-8.993242
17.901376,0.01242,3.531424,-8.971993,0.287015,3.606694,-9.138545
17.934737,2.773931,4.086599,-7.073622,-0.207704,3.622706,-9.247186
17.968037,3.474709,6.429559,-10.187841,0.481252,3.691542,-9.00641
18.001366,0.814357,5.4901,-8.459615,0.496964,3.624352,-9.075545
18.034701,-2.000726,4.761639,-7.379941,0.284322,3.73,-8.961218
18.068039,-3.43236,5.143677,-8.032684,0.350913,3.846422,-8.984563
18.10061,-2.673222,7.278184,-9.681001,0.077814,3.674034,-9.113405
18.134722,-3.475906,7.886034,-7.713346,0.809269,3.589036,-9.131362
18.168017,-2.943327,5.06691,-5.385201,0.376801,3.743618,-9.166528
18.201399,-2.659604,8.979624,-10.943688,1.037923,3.345717,-9.196457
18.234673,-2.855636,8.909591,-5.99724,-0.811813,4.125207,-9.307642
18.26767,-1.768031,5.083371,0.361537,1.08955,3.661613,-9.594657
18.300573,-1.58023,9.599595,-7.848024,0.125999,3.960301,-9.601989
18.334697,0.289709,11.706867,0.415259,-0.900851,3.58769,-9.553206
18.368013,-4.199879,3.517208,-13.079991,1.092543,4.025695,-10.048075
18.401364,-2.51026,-7.055964,-7.12495,1.206272,1.930544,-10.016351
18.434684,0.617277,-0.54051,-6.675871,-1.937128,8.871432,-8.229764
18.468017,0.6707,10.527531,-20.545677,-3.650839,4.018362,-11.613191
18.501368,1.009491,2.936144,-5.727135,-9.173861,4.93268,-12.978233
18.534693,-1.407691,4.17414,-10.504935,-8.087303,-9.32096,-12.93798
18.568014,0.481102,2.449505,-9.016736,-1.65535,-4.683525,-9.742205
18.60045,1.620932,2.930009,-8.640982,-6.103337,2.636858,-9.915791
18.634707,-0.818846,3.940398,-10.010664,-2.966971,4.763285,-9.33353
18.668033,0.662619,3.297682,-8.435971,-2.491256,6.854694,-10.783869
18.701374,1.007995,3.848068,-9.184037,-5.652613,4.809824,-11.351016
18.734701,-0.350913,3.552224,-9.440525,-3.775641,4.186411,-12.233461
18.768023,0.432917,3.344071,-8.854672,2.77887,-0.416456,-12.306935
18.80144,0.372312,3.644704,-9.328592,1.767283,-3.911068,-7.500853
18.834711,0.479306,3.382529,-8.873527,9.9749,16.538987,7.575973
18.868039,-0.275343,3.393603,-9.547519,27.681252,68.464641,-17.080396
18.901386,0.454615,3.363973,-9.348644,26.676698,30.679947,12.026205
18.93469,0.302279,3.282867,-9.513101,-4.990293,-10.511519,2.621595
18.968032,0.127197,3.343323,-9.272476,-3.445529,3.770553,-9.361064
19.001409,-0.241374,3.286608,-9.125377,5.425155,4.4004,-7.656631
19.034708,0.522553,3.531424,-9.203041,-3.214031,4.332912,-9.896936
19.068035,0.453268,3.487279,-9.160992,1.910192,3.430565,-9.061778
19.101388,0.644811,3.51646,-9.177303,-0.665761,4.390225,-9.125975
19.134708,0.940506,4.078519,-8.807984,0.72921,4.475072,-8.9898
19.168035,0.671448,6.136558,-10.414102,-0.017658,4.208858,-8.7803
19.201405,-0.151588,1.510795,-10.315038,0.047736,4.16187,-8.759051
19.234708,0.249305,-1.520223,-18.329316,-0.659327,4.258689,-8.739447
19.26807,-1.506755,-2.080336,-12.277007,0.052375,4.31241,-8.738998
19.301432,1.199688,-9.632816,-10.379534,0.350613,4.324232,-8.821003
19.334746,2.864615,1.535187,-11.540314,-0.058061,4.153639,-8.79691
19.368035,-0.350314,6.549872,-10.516607,-0.210248,4.359847,-8.645172
19.401348,-4.940163,4.616335,-7.345823,0.000748,4.405788,-8.780898
19.434742,-5.370985,4.163216,-6.220208,0.321433,4.333211,-8.933983
19.468034,-3.309204,2.127923,-9.647331,0.055518,4.345781,-8.798107
19.501405,2.160096,6.085979,-11.997324,-0.115973,4.307323,-8.635146
19.53392,2.503377,2.826755,-6.354887,-0.007931,4.219931,-8.78449
19.56706,3.726708,4.938816,-11.321686,0.099064,4.208259,-8.99384
19.601357,2.566676,7.444437,-10.116761,0.379195,4.526998,-8.721041
19.634699,0.565052,4.555281,-3.774893,-0.060306,4.737097,-8.81382
19.668036,0.921052,4.676043,-5.300054,-0.226709,4.750415,-8.995636
19.701368,2.029757,8.360701,-9.481078,0.027983,4.327075,-9.039781
19.734625,0.877506,3.78043,-4.784534,0.782932,4.50949,-8.862454
19.768036,1.362798,4.729465,-7.457606,0.271901,4.758197,-8.897321
19.801388,1.004852,4.106202,-7.893665,-0.262923,4.564559,-8.599382
19.834776,1.083116,3.897451,-7.517164,-0.074073,3.80557,-8.912734
19.86804,0.145752,4.921906,-3.908225,0.508487,7.475264,-9.129716
19.901369,3.367116,6.004274,-11.394712,-0.535273,6.796483,-8.590403
19.934709,1.715058,3.213582,-7.689253,-4.123411,6.6428,-12.08711
19.968081,5.592905,5.830538,-12.343747,-4.311962,2.616507,-23.184631
20.001367,-1.564367,15.143118,7.04953,-7.228652,-5.315766,-12.354971
20.034701,-28.023186,26.120625,-41.276313,-2.386057,-5.083371,-12.181684
20.068041,-3.69229,-6.880583,-11.894819,-1.197443,-4.578925,-13.497345
20.101384,0.127945,6.28246,-5.498032,-0.751657,-3.860638,-13.549271
20.134694,7.683866,6.696672,-10.449417,-4.164563,2.226388,-14.23703
20.168057,1.853777,1.612702,-8.297252,-3.664905,4.110392,-12.456877
20.201376,-2.567574,4.478963,-8.137733,-3.636922,3.873957,-4.11563
20.234699,1.914083,3.707554,-8.578282,20.36027,50.110485,23.555147
20.268058,0.558168,3.017251,-8.343492,12.084865,27.03629,-6.676919
20.30047,-0.093078,3.60026,-9.256613,20.235467,23.635954,3.32342
20.334703,0.595729,3.647696,-9.10278,-4.106053,1.145367,-4.977124
20.367147,0.732203,3.775192,-9.225488,-3.384026,3.563597,-8.844796
20.400445,0.160717,3.502543,-9.076443,4.431227,4.088395,-8.756357
20.433811,0.337744,3.538607,-9.179398,-1.558531,5.20548,-8.794965
20.467156,-0.047437,3.621808,-9.541833,0.780089,4.562464,-8.274058
20.500494,0.420946,3.29005,-9.061329,1.352772,4.289066,-8.555835
20.533816,0.710954,3.495659,-9.09859,0.684317,4.648658,-8.978128
20.567156,-0.196332,3.693188,-9.400869,-0.202766,4.831671,-8.469342
20.600484,0.529586,3.439094,-8.970346,-0.084848,5.059877,-8.224227
20.633796,0.962952,3.521398,-9.015988,0.556672,4.629055,-8.333915
20.667206,0.349865,3.60849,-9.281753,0.844435,4.843643,-8.63365
20.700531,0.067788,3.550728,-8.885349,0.238232,4.73994,-8.652206
20.733827,0.306319,5.727883,-11.25315,-0.007482,5.19291,-8.393024
20.767223,0.853414,3.860938,-8.324637,0.488285,4.858009,-8.673754
20.800476,0.135577,1.77701,-9.755972,0.741481,5.091003,-8.538028
20.833822,-1.506306,2.242699,-9.094849,0.354205,5.131257,-8.468444
20.867096,-0.886186,2.238359,-11.034072,0.449228,5.793726,-8.039268
20.900485,-2.390696,0.730108,-12.328035,1.044208,5.725788,-7.776944
20.933844,-2.790242,2.821218,-14.624456,1.809034,5.609067,-8.205821
20.967158,0.270854,1.217645,-12.890094,0.814806,5.726087,-7.98375
21.000503,1.348882,1.509299,-7.25888,1.813523,6.426416,-7.2297
21.034767,1.359207,2.582688,-8.254455,1.73526,6.565285,-7.128092
21.068034,2.000876,4.792615,-11.145407,2.16249,5.636451,-7.741179
21.101366,3.787613,6.460535,-8.430584,3.16001,5.512547,-7.713495
21.135213,3.252938,5.342104,-10.606692,-1.695904,8.467247,-11.930284
21.168028,1.407542,5.96387,-10.385071,-1.049147,5.542326,-14.519107
21.201366,-0.763628,6.47116,-7.246759,0.570289,6.974708,-16.259604
21.234886,-0.953076,5.790883,-7.32996,-0.035765,0.287015,-13.584287
21.268045,0.827376,6.694128,-10.412605,-4.512483,-4.159625,-11.29894
21.301442,0.813459,4.723929,-6.93191,2.088716,-0.301231,-10.341375
21.334689,2.018085,4.617383,-6.680809,-1.221535,2.391893,-7.985097
21.368028,2.052203,5.818118,-9.059534,-1.180533,2.778121,-10.823525
21.401382,0.037261,6.278569,-9.544526,-2.004767,5.274615,-11.488837
21.434837,-2.167129,4.991789,-5.524518,-0.076468,6.065478,-10.78776
21.468056,-2.758368,4.207062,-0.215935,1.610158,4.384089,-5.721299
21.501357,0.495169,6.040936,-10.315786,1.230664,8.39033,-4.918614
21.534685,-0.014066,8.900164,-8.982468,12.699748,21.384127,0.154581
21.568074,0.701077,5.874982,-5.249624,15.273008,17.269395,-3.791653
21.60139,1.049745,10.744663,-10.603849,17.832052,23.685486,3.845973
21.634688,-4.615886,-0.23464,-8.690065,2.505173,-4.213646,-8.062612
21.668054,-2.199153,4.4634,-20.560791,-2.744302,8.413375,-13.782415
21.70136,-0.535572,0.731455,-8.523363,-0.292552,3.19787,-8.323739
21.734266,0.258433,2.886313,-7.072425,-0.534076,4.559621,-8.950294
21.768035,2.298665,5.769035,-10.313093,0.958014,4.09064,-8.950594
21.801373,1.528154,3.838042,-8.325236,-0.017508,4.351018,-8.523363
21.834702,-2.172067,1.509299,-8.591301,0.489482,4.24148,-8.891335
21.868071,1.871285,3.217473,-9.295221,-0.182415,4.506797,-8.658939
21.901362,2.175509,2.840522,-9.169222,-0.303925,4.200478,-8.671958
21.934702,-0.228654,3.202509,-9.460427,0.365727,4.10291,-8.894477
21.968086,0.345974,3.442536,-9.5767,1.016375,3.710098,-9.33787
22.001374,0.780089,3.107485,-9.187329,0.637928,3.664756,-8.826091
22.034702,1.220488,3.145644,-9.041128,0.579417,4.103808,-8.945356
22.068095,0.07976,3.127238,-9.683844,0.639125,4.278591,-8.722837
22.101372,0.527491,2.988968,-9.364356,1.360703,3.795993,-9.064622
22.134701,0.558617,3.399738,-9.22878,-2.095001,4.522808,-8.889539
22.168056,0.945145,3.427871,-9.064322,0.885288,3.940697,-9.015688
22.201371,0.29345,3.529479,-9.485417,0.218329,3.623155,-9.166528
22.2347,-0.000449,3.304116,-9.168923,-0.146949,3.766962,-9.116847
22.268049,0.455363,3.332848,-9.044719,0.44025,3.870365,-8.929494
22.301373,0.069734,3.482491,-9.1782,0.11313,3.794795,-8.96032
22.334724,0.338792,3.420389,-9.084674,0.242122,3.98574,-8.96466
22.36804,0.69584,3.677924,-9.300908,0.719932,3.833703,-8.917672
22.401368,0.656184,3.534117,-9.236561,-0.227457,4.141219,-9.157699
22.434701,-0.18032,5.565221,-10.223606,0.115075,4.091837,-8.934582
22.468082,-0.374556,2.923425,-8.785388,0.124353,4.461754,-8.894926
22.501407,1.736606,0.218179,-11.888982,0.593185,4.172045,-9.265742
22.534707,-2.527469,0.588845,-11.931182,-0.49023,4.367778,-9.678008
22.568034,-4.050685,0.5239,-13.104233,-0.327718,4.064003,-9.585529
22.601437,-4.075376,0.17613,-11.581915,0.249455,4.547799,-9.410596
22.634731,-0.13827,2.843216,-14.60994,-1.152101,2.264098,-10.640062
22.668033,1.002308,1.861109,-11.815508,-0.429924,7.608895,-9.48003
22.701377,0.445188,1.674205,-8.195196,-2.174013,6.234574,-10.187542
22.734699,0.313652,2.342511,-9.360166,-0.718137,3.722967,-19.986462
22.767046,0.039356,5.562827,-12.074091,-4.068941,-8.394221,-10.310698
22.801425,0.64541,3.4997,-8.412478,-3.031168,-1.278849,-12.694959
22.834725,0.36034,2.89619,-5.985718,0.437107,1.006498,-11.163962
22.868071,0.661721,4.934626,-11.576977,-0.540061,2.487365,-10.455553
22.901368,1.78105,8.880261,-11.041854,-1.682735,3.466329,-10.254133
22.934748,0.646607,4.799349,-6.335134,-3.806318,3.446576,-9.958588
22.968073,-0.52824,6.025822,-10.366216,-2.213369,4.215292,-11.890778
23.001443,0.098315,5.010046,-7.32188,-0.704369,3.066783,-9.711827
23.034703,-1.074137,5.111653,-5.0711,0.597225,5.290776,-7.587646
23.06804,-0.788469,4.330218,-5.189019,-4.3585,10.441337,1.226773
23.101375,0.235239,9.355976,-9.741307,8.522166,47.368427,-15.239189
23.134112,-1.165569,5.148765,-5.149064,31.167334,47.935724,5.672665
23.168034,-1.658044,4.254499,-2.370793,-4.6102,-12.606071,-4.980566
23.201369,-0.124204,7.149641,-7.079159,-2.007909,11.92774,-15.122767
23.234674,0.685065,6.802918,-6.024026,2.670528,4.369275,-8.022508
23.268057,0.328017,3.604001,-2.807302,-2.740112,4.185813,-9.162189
23.30136,-2.471952,8.666871,-4.625613,0.999166,3.181708,-9.536446
23.334704,-8.670911,2.483474,-16.146773,0.640921,3.346016,-9.167426
23.368076,-0.889328,32.064742,-28.180311,0.130938,3.721022,-8.987256
23.401461,5.947709,-0.012121,-11.960362,0.336547,3.629889,-9.133757
23.434702,2.726494,1.178588,-4.697891,0.324276,3.674632,-9.177303
23.468053,-2.672324,7.51866,-17.289896,0.462696,3.727456,-9.053997
23.501347,2.58598,3.458997,-7.601862,0.524349,3.659219,-9.062975
23.534689,0.821839,3.710247,-8.917971,0.302578,3.644554,-8.926351
23.568037,0.113429,3.877698,-9.236262,0.547992,3.536661,-9.150666
23.601422,0.610244,3.940847,-9.674566,0.626106,3.608789,-8.893131
23.63392,0.975073,3.554469,-9.067016,-0.84249,3.93965,-8.880112
23.668102,0.422292,3.72177,-9.170569,0.349117,3.654281,-9.072852
23.701357,0.174783,3.800781,-9.533902,-0.34358,3.691093,-8.966755
23.734701,0.12974,3.637371,-9.477187,-0.135726,3.668796,-9.00641
23.768023,0.230001,3.428918,-8.976781,0.261127,3.724912,-9.044569
23.801357,0.027684,3.346316,-8.904952,0.056415,3.657723,-9.189274
23.834714,0.718286,3.294389,-9.003118,0.315896,3.766363,-9.104875
23.868138,0.240327,3.282717,-9.420622,0.373359,3.681216,-9.050854
23.901761,0.467933,3.47426,-9.582386,0.479905,3.632134,-9.096944
23.934694,-0.406131,3.511521,-9.414038,-0.527641,3.721171,-9.060581
23.968035,1.422955,3.775342,-9.418078,0.368271,3.612979,-9.105923
24.001554,0.23883,3.800931,-9.117595,0.588695,3.748406,-9.215013
24.034724,0.627453,4.37945,-9.980436,0.118966,4.190152,-9.26649
24.068036,1.536683,1.148959,-10.271642,0.442793,4.000704,-9.792186
24.101569,-1.574393,1.478472,-14.098161,-0.023494,4.382443,-10.590231
24.133777,-4.152143,1.901962,-13.600449,2.477189,1.874428,-11.582963
24.168035,-3.117512,0.069434,-9.513401,-1.048847,6.841975,-9.71497
24.201392,-1.235452,-0.509983,-8.5078,1.285283,4.030483,-11.375109
24.234757,0.64541,1.10631,-9.791288,-4.724078,-5.237204,-17.054058
24.268035,1.752169,2.865962,-10.647395,-2.581341,-3.812453,-11.29086
24.301346,0.42753,3.267753,-10.542495,-2.676364,-3.422035,-9.737267
24.334835,0.230899,2.40147,-8.649362,-5.031445,0.257984,-11.486892
24.368035,-0.03756,4.933728,-11.826731,-7.305419,0.060007,-11.864291
24.401389,-0.815404,4.412522,-8.219588,-5.232864,-2.48527,-13.164389
24.434701,-0.469729,4.354909,-7.707659,-2.708537,-0.653341,-14.04833
24.468058,-0.790414,2.799969,-6.165589,-1.875176,1.479969,-12.355868
24.501374,-1.474282,9.048011,-12.126167,-0.943948,1.095985,-5.639893
24.5347,-1.398862,5.553399,-6.866516,11.706119,35.370056,-17.282264
24.568034,-0.789067,4.650903,-5.692268,12.198743,41.310133,13.761764
24.601376,-1.393026,6.939542,-9.138545,20.997898,42.263059,12.696905
24.634749,-2.933301,12.828142,-17.71997,-4.629504,-2.895142,-0.959511
24.668039,-0.297191,1.24907,-0.253944,-6.641902,5.185128,-8.965408
24.701399,0.392065,1.51723,-6.584739,5.681194,5.000618,-8.501665
24.734793,-2.320812,5.34345,-10.360978,-2.761511,4.841997,-7.911473
24.768075,-4.81566,3.597716,-7.587197,0.933922,4.11997,-8.812174
24.801368,-4.091986,4.417161,-6.861728,-0.055368,3.919897,-8.836416
24.834758,-0.945743,4.41327,-4.296698,0.865086,4.056521,-8.990698
24.868062,1.116037,5.78804,-5.189917,0.065843,4.292209,-8.821152
24.901367,-1.716255,3.691691,-6.303859,0.380542,4.008785,-8.966007
24.934701,-3.793,11.992086,-8.468594,0.369768,4.197634,-8.938622
24.968064,-4.666615,-0.497563,-18.638029,-0.161165,4.188805,-8.720592
25.00141,0.810915,10.397042,-7.615479,0.022446,4.282482,-8.800951
25.034747,-1.594745,0.149643,-6.577855,0.027385,4.24133,-8.77177
25.068071,1.427893,5.567316,-11.62187,-0.160717,4.242228,-8.875622
25.101389,0.721279,2.795929,-8.229764,0.204113,4.221577,-8.920216
25.134712,-0.07976,3.08055,-9.348943,0.328915,4.184915,-8.923209
25.168058,1.734661,3.857197,-8.915278,-0.297939,4.12835,-8.814568
25.201376,0.434563,3.806917,-9.501579,0.25978,4.318995,-8.864998
25.234701,0.619821,3.628841,-9.074049,0.078862,4.306425,-8.699193
25.268071,0.536021,3.485035,-9.250478,0.327119,4.327225,-9.077192
25.301375,0.793706,3.523343,-9.070009,0.070482,4.133587,-8.928446
25.334704,0.738039,3.476505,-9.159196,-0.062401,4.001452,-8.936377
25.368039,0.403138,3.520949,-9.312281,-0.010325,4.355208,-9.348793
25.401485,0.395656,3.385672,-9.263946,0.363183,4.123411,-9.243594
25.4347,0.597075,3.399738,-9.120887,0.060007,4.733805,-9.169372
25.468018,0.5869,3.387018,-9.118942,-0.525097,4.213048,-9.128669
25.50142,0.131387,3.504638,-9.276965,0.769165,7.119562,-9.578645
25.534701,0.460302,3.603402,-9.283998,0.045342,7.001345,-10.048524
25.568126,0.257685,3.589934,-9.191219,-3.661913,4.528345,-11.670803
25.601404,0.558617,3.512419,-9.120887,-6.903478,-0.413463,-25.890624
25.634703,0.560862,3.73419,-9.288338,-5.277458,-5.303047,-14.435905
25.668034,0.802984,3.810807,-9.256164,1.319851,-2.453246,-12.145171
25.701405,1.014579,3.885928,-9.190471,0.338941,-4.210653,-12.152803
25.734708,0.747766,4.30014,-9.866259,-3.516759,-0.618774,-11.368824
25.768035,0.580465,4.740539,-9.318416,-2.33039,3.410363,-11.044547
25.801488,-1.195049,0.429625,-8.36519,-0.663367,8.267922,-14.088135
25.834707,1.221086,4.096027,-13.983086,1.010838,5.920922,-8.174545
25.868034,-2.738017,-0.164308,-17.936054,-1.240989,5.086064,-6.098249
25.90136,-5.877975,4.022103,-11.740686,6.061886,18.819696,-8.652954
25.934689,-1.385694,-1.689319,-8.668816,7.022295,24.483232,4.638033
25.968033,1.797212,0.103553,-9.189124,23.5327,43.717738,13.267344
26.001358,1.344991,3.57931,-10.413054,3.292145,-8.724782,-26.394472
26.034689,0.707063,3.624951,-8.00485,-2.555303,9.75268,-10.616269
26.068034,0.210847,4.433023,-10.915256,2.764504,3.654281,-7.947986
26.100913,0.468981,7.12495,-8.46605,-1.337209,4.280387,-8.173947
26.1347,0.5658,7.521503,-10.813798,1.331822,4.223822,-8.625868
26.168197,0.569691,5.875581,-7.284768,0.131387,4.249111,-8.428639
26.201369,-1.062166,6.502585,-9.512652,0.121211,3.757235,-9.091557
26.234664,-3.355743,6.327203,-9.240003,0.591688,3.805719,-9.14468
26.267969,-2.407007,5.526613,-6.974708,0.483796,4.045447,-8.83896
26.30132,-0.824383,5.186475,-7.60695,-0.183313,4.015668,-8.94356
26.334669,-1.632754,6.058145,-8.764587,0.921651,4.030333,-9.007608
26.367945,-1.894629,5.332676,-7.541406,0.318291,4.170399,-8.793468
26.401321,-2.181794,4.906044,-6.158256,-0.077515,3.825921,-8.719844
26.434651,-3.414253,6.105881,-8.087154,0.770063,3.935161,-8.950145
26.468012,-3.250993,5.82575,-9.024068,0.217282,4.069241,-8.864699
26.501377,-1.679892,2.987322,-4.487493,0.210997,3.835947,-8.941615
26.534682,-2.042028,1.678695,-6.03106,0.372162,3.778035,-9.11116
26.568025,-2.849052,4.465346,-8.217343,-0.04624,4.059065,-9.071954
26.601369,-5.134848,3.406472,-5.225532,0.895014,3.936507,-9.015838
26.63474,-4.454272,9.187478,-6.384516,0.576275,3.977659,-8.803943
26.668406,2.804309,2.083928,-2.568023,-0.63269,4.328572,-8.917672
26.701505,1.587562,18.769416,-18.976521,0.683868,4.418807,-8.9479
26.7347,2.729038,3.182457,-7.572532,0.15922,4.499913,-8.961966
26.768161,-2.24659,2.369446,-10.257276,-0.118966,4.005044,-9.068363
26.801479,1.858565,3.309952,-8.213303,-0.329963,4.094381,-9.323504
26.834692,-0.756894,2.820919,-8.973938,0.986297,4.213796,-8.917223
26.868032,-1.684531,2.659305,-8.823247,0.03771,4.825386,-9.162338
26.901386,1.419214,3.546837,-9.104726,-0.211894,3.840287,-9.598548
26.934775,0.426782,3.966735,-9.845009,-0.397302,6.473554,-9.504422
26.968024,0.838449,3.412308,-9.226834,-1.971097,7.88334,-10.126039
27.001404,0.742079,3.280323,-9.045018,-2.738466,4.021953,-26.974039
27.034735,0.886186,3.598763,-9.403563,-5.005856,-16.660198,-16.430047
27.068077,0.754949,3.463187,-9.431396,-5.177945,-4.993585,-14.403283
27.101372,0.396105,3.303667,-9.232072,-5.873037,-0.000449,-9.50113
27.1347,1.128607,3.513018,-9.189124,-4.317349,4.641625,-10.964189
27.168027,0.587349,3.534566,-9.163535,-2.622343,5.289579,-12.053739
27.20137,0.775599,3.470968,-9.203789,-2.627431,4.803688,-11.862645
27.234751,0.414212,3.684808,-9.225488,-2.600196,2.128222,-11.529091
27.268034,0.684916,3.662661,-9.185234,-2.210675,-1.176044,-2.195561
27.301404,0.839048,3.708452,-9.237459,-4.792764,12.504314,-2.846957
27.334743,0.600667,3.862733,-9.263647,10.474557,36.423841,20.994307
27.368033,0.830518,4.124609,-9.339516,31.845665,41.091804,6.160351
27.401366,0.874513,4.145259,-9.577897,-5.442813,-3.570032,-2.187331
27.434728,1.879216,5.648123,-8.703982,-0.685963,3.207148,-11.197931
27.468033,0.662619,3.789259,-11.084053,2.520735,3.437298,-9.430349
27.501444,-0.858951,7.396103,-9.826603,-1.326734,4.135981,-8.519173
27.534725,0.248108,-1.908696,-16.140339,0.991983,4.190601,-8.692759
27.568041,-0.69554,4.851873,-12.467951,0.849822,4.430479,-8.710417
27.601345,-3.205352,-0.537368,-7.508784,0.592885,4.919063,-8.712212
27.634722,-1.075035,0.599619,-9.625034,-0.010924,4.156034,-8.491489
27.66801,0.202916,3.455106,-9.980137,-1.035529,4.853669,-8.41143
27.701368,-0.243768,3.255931,-8.463356,-0.278336,5.167919,-7.999613
27.734741,3.353349,7.426929,-10.089227,-0.484694,4.850078,-8.11379
27.768011,2.684744,3.149984,-5.891293,-0.575826,4.967697,-8.463057
27.801366,1.012783,5.993948,-11.841246,0.546197,4.932531,-8.642329
27.8347,0.376651,7.100109,-11.874018,0.521057,5.097288,-8.439563
27.868031,-3.256829,5.751078,-7.417651,-0.389072,5.348089,-8.231559
27.901369,-4.221727,5.019473,-4.940163,-0.709008,5.179292,-8.048546
27.934709,-4.571442,6.530717,-8.517078,-0.116422,5.484564,-8.051988
27.968058,-3.081298,6.346208,-8.083712,-0.084399,5.200092,-8.392126
28.00136,-1.742293,5.271921,-7.931675,-0.077365,5.105668,-8.374019
28.034766,-1.16512,5.933193,-8.376114,0.140365,5.179142,-8.426245
28.068069,-1.610607,6.465324,-8.058871,-0.055069,5.100131,-8.769226
28.101368,-0.704968,6.298921,-8.093289,-0.451922,5.107912,-8.371176
28.134694,0.142759,4.656589,-5.978535,-0.7961,5.230171,-8.425347
28.168081,-1.085061,5.647525,-7.464938,-1.146714,4.641326,-10.071719
28.201423,-2.213967,5.019024,-6.985931,0.294946,4.167556,-10.393002
28.234708,-3.032065,3.314591,-5.458376,0.442644,4.560818,-9.63955
28.267616,-4.940911,3.740475,-4.634592,-3.711145,5.40241,-9.794729
28.301368,-6.382272,6.485825,-7.352706,-0.604707,2.432596,-21.783973
28.333907,-4.029136,5.83817,-4.646563,-5.298707,-7.601413,-12.883809
28.368037,1.789131,5.29766,-3.165697,-6.032706,-1.587263,-7.583755
28.40139,-8.161975,2.201996,-17.262511,-4.785432,2.320663,-11.523405
28.434736,5.042967,6.648187,-6.134762,-7.153232,0.044444,-10.295584
28.467986,1.834174,2.486766,-7.743574,-5.525117,2.87509,-11.972783
28.501459,3.986189,5.351082,-10.140704,-4.205416,5.373379,-9.4507
28.534725,0.979263,3.629141,-9.527168,-3.783423,3.747359,-8.200284
28.567437,-1.019068,3.341078,-9.573856,1.843152,13.253876,-12.111502
28.60139,0.161016,3.382529,-9.572959,1.110051,12.080825,-0.024392
28.634711,0.938411,3.524391,-9.004615,10.259371,16.33682,2.51894
28.668173,1.172602,3.548932,-9.108018,13.39035,34.561685,9.573108
28.701431,-0.030378,3.220915,-9.180146,-2.65287,-2.33443,-21.168042
28.734725,0.969237,3.038051,-9.057738,1.198041,10.4566,-9.66888
28.768032,0.694044,3.67119,-9.592412,3.374897,2.941232,-6.460834
28.801393,0.919556,3.237376,-8.729272,-0.610394,4.688762,-8.234103
28.8347,0.598721,3.335541,-9.325748,0.989589,4.308819,-8.364293
28.868062,0.796699,3.489225,-9.29163,-0.569541,4.324532,-8.619134
28.901369,0.542156,3.4156,-9.19511,1.222284,3.964491,-9.055044
28.934697,0.789067,3.382679,-9.098441,-0.027983,4.060711,-9.035591
28.968033,0.865236,3.350955,-9.265293,-0.258583,3.838491,-9.230127
29.001393,-0.022147,3.029372,-8.70054,1.061417,3.839988,-9.167426
29.034688,0.907884,3.838791,-9.6605,-1.557334,4.400849,-8.911088
29.067263,1.188913,3.809012,-9.26215,0.415858,3.881139,-9.019878
29.10151,1.017572,3.815596,-9.35014,0.438454,3.954315,-8.912734
29.134693,0.726965,4.396659,-9.701652,-0.146351,4.038414,-8.987406
29.168035,1.640835,4.537922,-10.277478,0.207704,3.980951,-8.91857
29.201355,1.479819,3.562999,-9.135103,0.342084,3.99427,-9.092305
29.234676,0.957865,1.311471,-9.870149,0.362735,4.005942,-8.985011
29.268059,-0.068836,2.431548,-14.823181,-0.211894,4.163516,-8.893729
29.301369,-1.999978,5.10462,-11.376755,0.465838,4.000106,-9.016137
29.334677,-1.500919,-1.147013,-8.77177,-0.107144,4.102162,-8.977679
29.368037,0.16775,-0.137672,-10.687649,-0.030378,3.930372,-8.697697
29.401363,0.098615,2.528367,-11.996875,0.277588,4.150197,-8.712063
29.434975,0.394908,2.373936,-8.4029,0.095921,3.988583,-8.984563
29.468066,0.887083,3.845225,-9.889902,0.450725,4.27485,-8.698445
29.501368,1.017871,4.55588,-8.186666,0.337295,4.346828,-8.843
29.534987,0.802086,3.41994,-8.017719,0.675488,4.372717,-8.877418
29.567094,0.300333,3.924985,-5.111803,-0.34358,4.391721,-8.918271
29.601367,0.864637,9.175357,-19.573297,0.059708,4.447089,-9.184635
29.634776,0.069883,7.482746,-8.623175,-0.017359,4.271857,-9.527018
29.667851,-2.295972,5.979283,-6.071314,-0.495917,3.938602,-9.885114
29.70144,-4.94525,7.146049,-10.034457,-0.556522,3.672986,-10.090274
29.734675,-5.287933,10.112721,-11.622019,-1.113942,3.913313,-9.46357
29.768044,-2.63192,5.746888,-4.297895,-0.723973,7.188099,-8.661184
29.801367,-0.052225,4.625015,-7.473468,-2.655863,6.215569,-9.818223
29.834691,-1.123819,4.86175,-7.632389,-3.722817,5.245434,-19.817215
29.868037,-1.822202,3.784919,-6.426566,-3.927229,-8.471138,-9.986572
29.901374,-1.633353,3.751698,-7.499955,-3.33599,1.196246,-10.384023
29.934695,-1.769229,3.546687,-5.334771,-0.489781,1.627816,-10.041042
29.968054,-1.912437,3.56674,-4.325429,-3.487728,2.104878,-10.088778
30.001397,-2.557847,7.227605,-9.160992,-3.936507,4.141668,-10.303067
30.034702,-4.007438,8.925304,-10.085486,-4.422099,2.88332,-10.96793
30.068073,-3.871562,1.364444,2.138098,-2.524925,1.966009,-12.327436
30.101394,7.82887,8.655348,-47.401349,-2.692376,0.10894,-10.246801
30.134702,2.918337,3.966137,-19.471989,2.023173,17.180806,-21.079903
30.168101,-2.789494,-0.544551,-10.782822,1.272564,5.487856,-1.155842
30.201386,0.562059,4.491683,-9.50113,11.216188,34.937737,4.905296
30.234699,-0.539612,3.304715,-9.362561,28.442785,36.729113,8.84719
30.268026,0.831715,2.839026,-9.362112,-0.032921,-8.237096,-6.900336
30.301386,0.928086,3.228996,-9.020626,-2.254221,11.792912,-14.906084
30.3347,0.674141,3.186497,-9.23716,3.418892,4.368826,-9.7651
30.368031,1.108854,3.639915,-9.654664,-1.11065,4.386035,-8.861257
30.401491,0.668156,3.430415,-9.281005,1.266428,3.836845,-9.11954
30.434795,0.940207,3.355593,-9.427955,-0.289709,4.006241,-9.047562
30.468157,0.294497,3.413954,-9.352235,0.573282,4.117276,-8.853026
30.501449,0.912373,3.192333,-9.20783,-0.084997,4.197485,-8.990997
30.534786,0.453867,3.381482,-9.210972,0.358694,4.143464,-8.728523
30.568123,0.576724,3.274637,-9.187778,0.270255,4.1912,-8.76369
30.601462,0.568793,3.475158,-9.061329,-0.202317,4.20362,-8.719994
30.634788,0.62461,3.334344,-9.317518,1.290521,3.892812,-8.919318
30.668117,0.380991,3.450766,-9.226834,0.328616,4.100366,-8.878765
30.701445,0.885138,3.359783,-9.003268,0.467784,3.842831,-9.079586
30.734611,0.284322,3.677026,-9.455938,0.074821,4.264674,-8.823098
30.767763,1.248621,3.314142,-8.908544,0.236585,4.273952,-8.600429
30.801424,0.568494,3.556414,-9.106671,0.619522,3.802727,-8.95643
30.834811,0.565351,3.741972,-9.355677,0.132883,3.992474,-9.270081
30.86813,0.875411,3.736135,-9.253172,0.032772,4.200627,-9.184635
30.901449,0.480354,4.162319,-10.055108,0.889328,4.208409,-8.953586
30.934787,0.423789,4.004296,-9.361962,-0.165655,3.794047,-8.545809
30.968129,-0.431271,1.536085,-10.676875,0.325473,4.514877,-9.154108
31.001453,0.80897,2.77034,-13.526825,0.366027,4.197934,-9.366601
31.034791,-3.151032,0.928983,-16.840518,0.296892,4.332163,-8.917522
31.068123,-4.709114,0.908333,-10.961346,-0.3563,5.149214,-8.700989
31.101513,-0.801188,-1.308029,-7.805675,-1.137137,3.688699,-10.197269
31.134794,2.748941,0.025739,-9.845009,1.484608,4.977124,-8.883853
31.168121,3.263413,3.346316,-10.827415,-0.43576,8.417416,-9.303901
31.201456,1.837466,2.572961,-8.81786,1.16512,8.164669,-13.681855
31.234739,0.689704,3.544592,-8.937425,-5.024112,0.182564,-11.548395
31.268112,-0.41511,5.953395,-13.410253,-3.451515,-3.420838,-10.844026
31.301455,-0.679828,4.226665,-8.39886,-4.835113,3.19772,-8.515282
31.334772,0.52824,4.632796,-8.09284,-0.914767,1.925605,-9.20349
31.368115,-0.411219,3.928277,-10.097307,-0.870473,0.059408,-10.697525
31.401454,1.153897,5.011692,-9.822264,-1.8861,2.51026,-11.611993
31.434764,1.577386,4.346379,-7.60276,-0.941703,3.846422,-13.08882
31.468111,-0.321583,3.145644,-6.136109,-1.144619,3.697977,-10.274634
31.501456,-0.735944,7.142009,-14.055064,-1.820107,5.364251,-7.864934
31.534797,-1.63051,3.233186,-6.654323,7.873464,12.917778,-3.315639
31.568111,-1.392577,3.237226,-7.864635,12.891441,27.145979,-1.289024
31.60137,-1.503463,3.100901,-7.992579,9.831991,21.088582,0.336996
31.634709,-0.726666,2.676663,-7.195431,12.188568,12.453735,-6.850654
31.668057,0.160268,2.835435,-7.30931,-1.876971,0.034717,-5.485611
31.701433,0.271602,2.333083,-5.106266,-3.958954,8.29396,-11.12296
31.734701,-1.505408,5.824552,-9.684742,3.520949,4.05712,-9.15321
31.768074,-3.017999,2.251827,-6.667641,-1.07279,4.41731,-8.890587
31.801482,-2.67382,3.520949,-7.570137,1.016225,4.136281,-8.765785
31.834693,-2.29672,4.922954,-10.710544,-0.304374,4.203919,-8.957328
31.868057,-2.572662,7.669949,-7.727262,0.36902,4.088395,-8.88939
31.901486,-5.192311,1.658942,-1.03119,0.543503,3.83056,-9.062377
31.934732,7.885585,18.893021,-4.556777,0.643465,3.919149,-9.069859
31.967973,3.526935,6.544335,-5.962972,0.558318,3.975115,-9.017185
32.001175,0.330262,3.581704,-8.040914,0.133033,3.790456,-9.105175
32.0347,-1.079824,2.285497,-8.794366,0.204113,4.017913,-8.995038
32.068038,0.257386,4.084205,-9.786649,0.542306,3.976013,-8.933235
32.101927,1.188015,3.192483,-9.244642,0.5239,4.138675,-8.963613
32.134708,0.427829,3.259223,-9.344454,0.426333,4.167257,-8.895375
32.168032,0.67055,3.091773,-9.250777,0.375005,4.238786,-8.775212
32.201343,0.242571,3.309204,-9.621293,-0.204712,4.274251,-8.646669
32.234706,0.678481,3.20625,-9.199749,0.299286,4.24986,-8.821901
32.268035,0.954722,3.187844,-9.110412,0.296892,4.344584,-9.114902
32.301865,-0.005686,3.259972,-9.675165,0.145303,3.954764,-9.287141
32.334725,0.454316,3.348261,-9.45519,0.265018,4.447388,-9.1366
32.368035,0.790115,3.147889,-9.408052,-0.409124,3.872011,-9.101583
32.401459,0.156676,3.334943,-9.287889,0.788169,4.651501,-8.898219
32.434733,1.074436,3.290798,-9.178649,0.023793,4.57234,-8.431183
32.468034,0.038758,3.383876,-9.49679,0.13004,5.245584,-8.123667
32.501465,0.830069,3.248,-9.397278,0.609346,5.506412,-8.201331
32.534709,0.267861,3.169438,-9.398475,0.152337,5.164328,-9.132859
32.568037,0.995275,3.381033,-9.206483,-0.165505,4.692354,-9.662595
32.601367,0.835008,3.477403,-9.34625,0.893967,7.43501,-10.329254
32.634726,0.771559,3.698126,-9.215312,-1.585168,6.419084,-12.644979
32.668012,0.811963,4.353562,-9.662744,0.486789,-3.512569,-25.146599
32.701366,0.581961,4.250159,-9.878829,-6.979796,-4.620974,-12.825298
32.734705,-0.634336,1.727478,-11.677088,-5.803752,-0.240327,-9.634611
32.768024,0.64556,1.375219,-11.204216,0.954273,1.41637,-9.434389
32.801368,-2.060284,-2.113707,-13.967373,1.242336,2.046966,-10.634675
32.834706,-3.990379,1.848689,-16.237906,-1.441959,3.071122,-13.084779
32.868033,-2.307045,2.278464,-14.368566,-2.010603,1.842404,-11.962607
32.901368,0.68312,-1.367138,-9.371838,-2.250031,2.303155,-13.165586
32.934661,2.448608,1.509897,-9.561286,-2.714373,1.584719,-3.61268
32.968057,1.599384,3.751399,-9.667084,6.376136,19.138435,6.221406
33.001372,1.792723,3.966286,-9.058785,9.575802,25.522054,6.668389
33.034683,3.5416,6.889412,-11.971286,28.818239,37.981475,9.785452
33.068037,2.122984,5.160886,-8.865596,1.234105,-9.957541,-13.52054
33.101395,1.088652,5.177047,-7.09547,-2.049809,12.664732,-19.517181
33.134712,0.300034,7.942,-14.581957,4.286971,5.78355,-10.064087
33.16804,-1.975287,6.882827,-8.581724,-2.126127,4.81132,-8.864699
33.201367,-1.467099,5.883212,-8.212555,1.399311,4.134335,-8.664626
33.234699,-1.127111,5.219696,-6.678415,0.297939,3.922291,-8.832525
33.268038,-0.002245,7.068983,-10.03326,0.887383,4.146157,-8.719844
33.301406,0.620719,5.341804,-5.359462,-0.144555,4.411324,-8.682284
33.334719,0.19678,5.676107,-4.970839,1.0686,4.115031,-8.852877
33.368076,0.308414,5.611012,-6.429409,-0.370666,4.410875,-8.564515
33.401376,1.370879,6.337229,-8.540123,0.76692,4.235195,-8.825193
33.434699,0.237783,4.492431,-4.89916,0.362435,4.070737,-8.985909
33.468132,-0.775899,5.333873,-6.881481,0.388174,4.398605,-8.773716
33.501397,0.148147,7.201268,-9.070607,0.493672,4.432274,-8.766982
33.534699,-3.753344,0.321134,3.354247,0.323229,4.293256,-8.813521
33.568018,-13.959742,5.066312,-25.501103,0.302578,4.474623,-8.73406
33.60128,4.768971,6.974259,-7.796098,0.505943,4.55588,-8.591151
33.634772,-1.706379,0.631793,-5.8048,-0.005686,4.411474,-8.606116
33.668019,2.122685,4.76957,-12.95863,0.274445,4.8616,-8.486551
33.701366,0.168199,2.550814,-9.480629,0.603959,4.595236,-8.781946
33.734702,0.387575,3.150433,-9.490655,-0.306319,4.94525,-8.443603
33.767425,1.012933,3.553421,-9.426757,0.172838,5.045511,-8.498971
33.801369,0.668904,3.28152,-8.957926,0.386827,4.572191,-8.705478
33.834721,0.616379,2.979092,-9.173262,0.350015,5.371883,-8.719695
33.868037,0.510133,3.435802,-9.373933,-0.147997,5.424258,-8.633051
33.901371,0.525247,3.366966,-9.311682,0.534974,4.444844,-9.639999
33.934698,0.734448,3.236328,-9.223393,2.464769,2.832292,-9.000574
33.968021,0.156527,3.127388,-9.32111,0.201569,10.079799,-8.993242
34.001378,0.441147,3.375496,-9.346998,-1.263136,6.695474,-9.45923
34.034722,0.304673,3.278378,-9.265742,0.618624,5.000319,-16.216956
34.068039,0.323977,3.274487,-9.461475,-0.51537,-3.941146,-14.143503
34.100796,0.6915,3.149385,-9.177303,-3.199665,2.25916,-9.771086
34.1347,0.239429,3.197271,-9.265891,-0.498161,-0.420646,-9.233868
34.168078,0.678481,3.241566,-9.323653,-1.42056,-0.716191,-12.328783
34.201368,0.315747,3.274188,-9.442919,-2.189127,-0.552931,-12.580333
34.234707,0.423041,3.21029,-9.172065,-3.57931,1.802449,-12.133798
34.268032,0.216084,3.254136,-9.35463,-3.971823,3.766962,-12.618791
34.301369,0.474667,3.244259,-9.361812,-2.6195,4.20347,-12.234209
34.334703,0.529736,3.246354,-9.341012,-3.111975,3.303817,-1.203279
34.368029,0.732652,3.051669,-9.25392,12.517932,49.050414,-7.529135
34.401352,0.645111,3.316836,-9.450102,15.10032,28.096361,9.19092
34.434706,1.003057,5.580036,-10.049871,10.984541,22.658187,-0.640023
34.468019,1.631407,-0.579866,-10.17587,-3.837593,-0.027085,-5.472443
34.501371,1.932339,1.117833,-14.210992,-1.472936,2.233421,-7.943347
34.534702,0.36064,-1.381055,-14.186301,0.751806,3.556115,-8.831179
34.568088,-1.972593,-1.205973,-12.051046,-1.247424,4.617532,-8.651008
34.600635,-1.7185,0.404186,-11.308069,0.574928,4.321389,-8.374468
34.63469,-1.767433,1.712514,-9.347746,0.409573,4.063105,-9.130165
34.66802,-2.073153,2.489161,-9.803259,0.216982,4.197485,-9.074648
34.70139,-1.364744,3.652335,-11.287418,-0.669652,4.335755,-8.976332
34.734692,0.159669,4.918764,-9.276067,0.152935,4.226366,-8.823846
34.768099,1.665077,4.947196,-8.957627,-0.355701,4.292807,-8.690664
34.801379,2.934349,4.532685,-8.363694,-0.146201,4.244921,-8.671659
34.834705,1.60522,5.694213,-10.716829,0.050879,4.120867,-8.970346
34.868403,-0.694194,4.912329,-7.787419,0.194835,4.168903,-8.89358
34.90137,-0.005686,5.096988,-8.932337,0.206058,4.197784,-8.837912
34.9347,-0.158472,3.949077,-6.396188,-0.149344,4.141817,-8.726578
34.968122,0.670101,5.15505,-9.282202,-0.152785,4.301038,-8.698445
35.001394,1.085061,3.905531,-6.503632,-0.093976,4.210204,-8.744236
35.034704,2.397579,4.73994,-6.672878,0.003741,4.215891,-8.81786
35.068029,1.617191,4.156034,-6.674973,0.115524,4.155734,-8.851829
35.100463,2.68639,6.616313,-8.412478,0.296293,4.101713,-8.956879
35.134701,2.690879,5.761852,-5.880968,0.035765,4.107849,-8.88939
35.168049,3.189939,6.897941,-7.554275,0.073475,3.99397,-8.911836
35.201393,2.645238,8.620182,-12.006602,0.135876,4.042305,-8.793169
35.234737,4.53493,9.200198,-5.596796,-0.488734,4.259287,-8.682733
35.267971,6.333937,11.557823,-1.372824,0.566997,4.178779,-9.097543
35.301163,-6.782417,15.104809,-13.991017,0.747467,4.159924,-8.899715
35.334703,-14.804925,-4.5053,-4.730513,0.108192,4.419555,-9.16578
35.368031,-1.803796,4.237439,-12.198893,-0.425136,4.63534,-9.475092
35.401375,3.923937,6.396039,-11.230703,-0.255141,4.317349,-9.608125
35.4347,2.792786,2.719761,-7.50624,-0.220574,3.730449,-9.76944
35.468043,0.243918,5.433236,-10.655925,-0.762431,3.501944,-9.370043
35.501372,1.076382,3.191285,-8.059769,-1.166467,8.156438,-8.833722
35.534706,0.462696,3.581405,-8.81801,-0.133033,6.212726,-10.571975
35.568027,-0.521506,3.845824,-9.497539,-1.966159,5.983174,-9.033346
35.601358,0.493822,3.654281,-9.059234,-2.977146,6.774635,-17.347508
35.634706,0.086344,3.783572,-9.272027,-3.636174,-12.14996,-14.285514
35.668035,0.534824,3.741074,-9.146177,-3.833703,-5.835476,-13.893599
35.701471,0.917611,3.866923,-8.965408,-1.154346,-0.901299,-12.329082
35.734702,0.14665,3.742121,-9.01898,-5.335819,3.131877,-11.452324
35.768034,0.507439,3.764568,-8.992194,-5.488155,1.950147,-11.996875
35.80135,0.466437,3.51646,-9.079137,-3.538906,2.776026,-13.563487
35.834724,-0.242721,3.78866,-9.267388,-1.431784,1.335863,-6.997155
35.868035,0.622365,3.916605,-8.704281,-2.427807,11.110989,-2.140044
35.901368,1.066805,3.705608,-9.222495,13.726149,17.253383,4.804436
35.934722,0.351062,3.577215,-8.910789,11.883146,34.274969,7.543351
35.968077,0.450276,4.179378,-8.967653,21.713641,35.010613,5.977039
36.001344,1.261939,4.25824,-9.294473,2.153811,-8.212555,-6.953459
36.034726,0.887383,3.712642,-8.828635,-4.434968,12.013336,-16.182987
36.068041,-0.379495,3.104044,-8.477722,2.729787,3.809012,-7.484392
36.101368,0.436957,3.660566,-9.472847,-1.52142,4.585359,-8.334214
36.134739,2.613514,4.285175,-9.270231,0.911774,4.315403,-8.644274
36.168045,-0.828423,3.046581,-8.641731,1.366839,4.616485,-8.67121
36.201371,0.731604,3.597117,-8.74678,-0.377549,4.058167,-8.596239
36.234718,1.323592,4.132839,-9.442021,-0.039057,2.968168,-9.380518
36.268038,0.090085,3.678373,-9.013444,0.995126,3.539954,-9.272924
36.301367,0.687609,3.334793,-8.877568,-0.64122,4.153639,-8.782545
36.33468,0.843088,3.783572,-9.299711,0.517166,4.005193,-8.864699
36.368039,0.411967,3.55387,-9.101733,0.864936,4.036918,-8.800053
36.401368,0.539612,3.596369,-9.324252,-0.115824,4.265572,-8.735557
36.434704,0.631942,3.329705,-8.965408,0.77934,4.088395,-8.812024
36.468071,0.597225,3.621509,-9.068512,0.313352,4.176984,-8.601626
36.501404,0.605006,3.485484,-9.097244,0.133182,3.288853,-9.087367
36.53469,0.723075,3.573174,-9.263497,-0.007183,3.631984,-9.516094
36.568118,0.386079,3.610286,-9.149319,0.149194,3.641112,-9.054296
36.601376,0.5869,3.480845,-9.171317,0.199624,3.567787,-9.077192
36.634702,0.847578,3.781777,-9.289086,-0.387575,3.768608,-8.880561
36.668022,0.318291,3.797489,-9.155155,0.533178,3.494761,-8.93518
36.701373,0.395057,3.676278,-9.136749,0.542755,3.588438,-9.280407
36.733775,0.445188,3.823377,-9.108617,0.031425,3.710098,-8.961817
36.768111,0.727564,3.620461,-9.127023,0.076767,3.35694,-8.953586
36.801369,0.768117,3.748556,-9.284896,-0.027085,3.526336,-9.31662
36.8347,0.301231,3.63363,-9.190621,0.440848,3.567189,-9.194512
36.868065,0.446834,3.576017,-9.148122,0.805528,3.678224,-9.650174
36.901362,0.326671,3.942643,-8.869337,1.325537,4.018212,-9.617403
36.934699,0.836803,3.824275,-9.191968,1.812924,3.746012,-9.792634
36.968034,0.845932,3.66311,-9.213516,-0.518662,3.424878,-9.574754
37.001493,0.572833,3.598015,-9.171317,-3.455256,1.807388,-9.263198
37.03478,0.787571,3.670891,-9.210673,-0.859549,7.35121,-8.463206
37.068041,0.722027,3.59592,-9.153809,-4.719739,4.37556,-10.33913
37.101367,0.6288,3.607891,-9.188077,-6.550021,2.291034,-16.824357
37.134762,0.629997,3.596818,-9.17401,1.244281,-9.25377,-12.972098
37.16803,0.054919,3.478301,-9.4929,-0.735345,-4.339047,-12.272517
37.200977,0.240476,3.939949,-9.328292,-3.278378,0.639873,-11.652696
37.234689,0.698982,3.689896,-9.351786,-6.11905,3.116913,-10.498201