time_tick,acc_X_value,acc_Y_value,acc_Z_value,acc_X_value,acc_Y_value,acc_Z_value
0.025756,1.241438,2.888707,-9.315124,-0.795652,3.204604,-9.40476
0.059096,1.238146,2.888408,-9.296269,-0.625208,3.210889,-9.247934
0.092162,1.210911,2.86252,-9.205286,-0.668605,3.200563,-9.229827
0.125494,1.228419,2.906515,-9.414187,-0.652144,3.223159,-9.19107
0.159021,1.24907,2.87943,-9.403114,-0.60755,3.216725,-9.227732
0.192177,1.176792,2.930308,-9.187927,-0.62042,3.247252,-9.247934
0.224294,1.214353,2.897536,-9.334278,-0.57837,3.246803,-9.186581
0.259176,1.158386,2.907712,-9.401168,-0.612788,3.241266,-9.145578
0.292629,1.20283,2.856983,-9.382164,-0.613386,3.223908,-9.197205
0.325882,1.239343,2.940933,-9.406406,-0.600218,3.203107,-9.2204
0.359233,1.227371,2.89185,-9.372587,-0.581662,3.237525,-9.190621
0.392636,1.241288,2.923125,-9.358221,-0.528539,3.26476,-9.175507
0.425635,1.188015,2.823463,-9.273822,-0.616828,3.167043,-9.268884
0.458844,1.226324,2.877933,-9.33787,-0.695391,2.930607,-9.150367
0.492074,1.273312,2.938987,-9.385306,-0.606204,3.359933,-9.172364
0.525542,1.189063,2.92552,-9.369295,-0.648553,3.299328,-9.156802
0.558892,1.221086,2.810295,-9.247336,-0.584356,3.296185,-9.201844
0.592204,1.224528,2.96308,-9.386952,-0.629398,3.235879,-9.158148
0.625404,1.206421,2.922227,-9.406705,-0.719483,3.401833,-9.155904
0.658876,1.211809,2.894244,-9.372587,-0.641519,3.290349,-9.141388
0.692289,1.297704,2.95066,-9.378273,-0.656334,3.275834,-9.147224
0.725496,1.177989,2.889306,-9.366002,-0.496366,3.279575,-9.235514
0.758779,1.20687,2.92103,-9.394285,-0.680426,3.274936,-9.186581
0.792214,1.1735,2.86267,-9.357922,-0.754649,3.251741,-9.129417
0.825508,1.193702,2.907562,-9.356575,-0.705417,3.37789,-9.167725
0.859078,1.229915,2.95066,-9.381116,-0.742079,3.366517,-9.152013
0.892467,1.189212,2.916391,-9.363608,-0.621916,3.362926,-9.215611
0.925915,1.148659,2.839026,-9.349542,-0.585852,3.307408,-9.290732
0.959289,1.199388,2.891251,-9.357024,-0.7542,3.315339,-9.133308
0.992611,1.22782,2.95036,-9.383211,-0.82977,3.266706,-9.133457
1.025854,1.227671,2.914745,-9.354929,-0.652743,3.310551,-9.173113
1.059168,1.190559,2.934049,-9.394435,-0.720381,3.318482,-9.185832
1.092722,1.164222,2.904719,-9.334128,-0.846081,3.312047,-9.094849
1.125931,1.215999,2.910705,-9.361363,-0.666959,3.296036,-9.196158
1.159285,1.204925,2.915045,-9.335326,-0.653491,3.317434,-9.211571
1.192589,1.189961,2.909657,-9.351786,-0.679678,3.352152,-9.192566
1.225866,1.217495,2.931954,-9.370941,-0.800739,3.28167,-9.137348
1.258906,1.22393,2.9339,-9.374831,-0.789666,3.287057,-9.12388
1.292341,1.217944,2.883769,-9.323653,-0.653042,3.208644,-9.217257
1.325481,1.191756,2.922976,-9.378572,-0.72083,3.265957,-9.179996
1.35894,1.162426,2.918786,-9.359418,-0.806276,3.236478,-9.11984
1.392236,1.201932,2.891401,-9.373036,-0.635085,3.266706,-9.204538
1.425628,1.199987,2.913399,-9.367499,-0.703023,3.329855,-9.212469
1.45922,1.21121,2.92971,-9.337121,-0.663666,3.289302,-9.194512
1.492722,1.204177,2.83738,-9.295072,-0.750908,3.242763,-9.16593
1.526014,1.221386,2.922976,-9.376178,-0.63718,3.303069,-9.22878
1.559365,1.151652,2.934498,-9.390394,-0.713049,3.30262,-9.179098
1.592605,1.189661,2.890952,-9.358969,-0.820193,3.229145,-9.103978
1.625913,1.2362,2.938838,-9.40057,-0.650348,3.280772,-9.206483
1.659019,1.247873,2.868206,-9.309737,-0.757044,3.248299,-9.159046
1.692145,1.255055,2.977745,-9.355976,-0.577771,3.248898,-9.257062
1.725547,1.189512,2.967569,-9.380817,-0.730707,3.263114,-9.188825
1.758993,1.189063,2.903821,-9.360915,-0.722177,3.266556,-9.179996
1.792593,1.280345,2.90038,-9.361064,-0.726517,3.320128,-9.191219
1.825723,1.239792,2.959937,-9.403263,-0.717987,3.222112,-9.184635
1.858843,1.129056,2.875389,-9.393088,-0.755248,3.295587,-9.168623
1.892574,1.188464,2.898584,-9.390095,-0.715892,3.319081,-9.151414
1.925738,1.189212,2.885864,-9.386204,-0.619372,3.140856,-9.250628
1.958937,1.154795,2.851147,-9.364057,-0.719483,3.34856,-9.175956
1.992599,1.170657,2.959189,-9.448007,-0.692398,3.307857,-9.200647
2.025694,1.120077,2.951109,-9.424662,-0.854461,3.377292,-9.164882
2.058923,0.45671,3.738829,-9.92881,-0.717837,3.282119,-9.208578
2.0924,1.499422,3.096412,-9.367798,-0.833062,3.202509,-9.184934
2.125648,-0.8172,3.683012,-10.429365,-0.740284,3.275385,-9.259906
2.158914,1.083565,-0.280281,-10.212233,-0.732353,3.136666,-9.149768
2.192199,3.572127,-1.978878,-10.511818,-1.122921,3.445379,-9.084674
2.225626,2.638355,-3.801978,-10.019792,-0.699281,3.356342,-9.312879
2.259032,3.367715,-3.271195,-11.355805,-0.636282,3.251741,-9.286692
2.292358,2.255418,-2.340865,-11.617081,-0.706464,3.184851,-9.201994
2.325896,1.774017,-1.59684,-11.30328,-0.886485,3.095364,-9.082279
2.359428,2.031104,0.398499,-13.128774,-0.742977,3.127538,-9.201844
2.392915,1.733614,-0.496066,-11.203169,-0.694343,3.250843,-9.251226
2.425712,0.323079,-0.62431,-9.625783,-0.856556,2.950061,-9.034543
2.458998,0.931527,0.950831,-10.198167,-0.962503,3.106737,-9.078987
2.492247,1.258497,2.192868,-10.447771,-0.482449,3.346316,-9.319314
2.525761,1.00156,2.680554,-9.075097,-0.853114,3.201012,-9.104726
2.559027,1.471738,4.716446,-9.610369,-0.693745,3.163602,-9.192716
2.59239,1.399461,5.834279,-7.660821,-0.509235,3.160309,-9.275917
2.625602,1.535187,9.420921,-5.269377,-0.531532,3.092222,-9.278312
2.658879,1.203578,10.202955,-3.420987,-0.405682,2.897387,-9.490954
2.692406,3.01336,8.638887,2.033498,-0.349716,3.231539,-9.812836
2.726071,8.296804,-3.775043,-11.902151,-0.469729,3.484137,-10.064087
2.75907,-2.393689,7.350611,-18.224865,-1.378361,3.840137,-10.743615
2.792257,-2.004318,8.485653,-15.20103,-1.668668,2.134208,-12.667425
2.825661,2.053251,3.628692,-11.366878,-0.293151,-1.942814,-12.267878
2.859045,1.321347,3.14325,-9.574904,3.190986,4.623817,-15.966154
2.892283,1.172004,3.115417,-9.076443,-1.146714,-0.991534,-13.241007
2.925514,1.270169,3.134421,-9.486166,-7.777243,17.093564,-22.636339
2.959155,1.242036,3.098956,-9.39234,-13.463226,-1.170058,-16.109213
2.992474,1.154495,3.04284,-9.302255,-3.223758,-1.231711,-8.646669
3.025812,1.267625,3.053913,-9.49275,-1.272264,-1.152251,-5.910896
3.059016,1.153298,3.16854,-9.550961,-1.757556,2.781563,-8.420409
3.092244,1.204326,3.089678,-9.473147,-1.625122,5.106566,-10.959849
3.125693,1.178887,2.998994,-9.329789,0.325473,7.033368,-12.126765
3.158944,1.217046,2.948565,-9.2831,-0.016161,7.031273,-12.098333
3.192409,1.278549,2.947816,-9.411643,-0.987943,8.713858,-14.449074
3.225556,1.125315,2.85818,-9.226236,-1.221236,11.653893,-13.948818
3.25895,1.299649,2.871499,-9.079586,-1.208068,15.83806,-9.546023
3.292382,1.312219,2.977296,-9.27487,0.793557,21.671292,-6.544485
3.325622,1.344542,2.873893,-9.255267,4.214544,22.25011,5.751976
3.359079,1.368185,3.075013,-9.771834,6.774486,18.478809,6.657764
3.39236,1.456026,2.860575,-9.924021,-1.736756,-5.026507,-7.808818
3.425786,-1.162277,-3.224207,-9.465066,4.06131,11.415961,-17.808857
3.458939,2.935995,2.197806,-12.162979,-2.456838,8.862005,-13.149575
3.492271,1.312369,8.5916,-13.214819,-2.427957,8.689167,-12.726235
3.525731,2.995702,15.281089,-13.766253,0.866433,4.124758,-8.980821
3.559096,8.691562,10.347211,-35.260218,-0.396255,2.867608,-8.992943
3.59245,12.582578,1.251614,-24.035351,-0.604258,3.140856,-9.281903
3.625645,7.509083,-5.277159,-5.344498,-0.562957,3.145195,-9.213516
3.658925,4.303432,-1.782846,-6.084033,-0.543503,3.201312,-9.22459
3.692548,5.964768,2.850997,-9.987918,-0.710654,3.405724,-9.160842
3.725618,6.323312,5.612658,-10.63273,-0.651396,3.417695,-9.148272
3.759105,3.963293,8.518425,-11.419253,-0.671598,3.469322,-9.152761
3.792309,2.162341,9.524175,-9.120139,-0.636431,3.451215,-9.126274
3.825758,5.210118,9.002669,-10.431759,-0.671298,3.384475,-9.097992
3.859016,5.282995,14.644807,-14.114472,-0.679529,3.340928,-9.194661
3.892504,3.229145,28.808213,-16.175654,-0.687909,3.536512,-9.280706
3.925623,1.337359,24.21178,4.030184,-0.772008,3.604001,-9.426458
3.958988,-8.849585,28.285959,21.063592,-0.872418,3.81395,-9.838724
3.992514,-12.687178,0.316944,-36.938464,-1.531745,4.05697,-11.118022
4.02569,11.321087,-0.710056,-16.182837,-0.620569,3.020992,-11.795007
4.05924,-7.444737,15.622125,-19.767684,-0.496366,-4.227713,-12.973894
4.092295,1.522467,4.360895,-10.518552,-0.146949,-0.02918,-14.993625
4.125666,0.49861,3.584996,-8.297252,-1.532194,-2.031553,-13.03405
4.159116,0.616978,3.133224,-7.54395,-4.529991,20.903923,-17.312492
4.192347,1.029992,3.086685,-9.243445,-13.094805,0.427231,-14.761977
4.225803,0.996023,2.588823,-9.389347,-3.576017,-2.995702,-7.067636
4.259038,1.030591,2.878831,-9.343107,-0.558318,-2.187032,-6.164541
4.292458,1.161529,2.91684,-9.356575,-2.677711,2.139445,-7.581211
4.325693,1.241288,3.058403,-9.204538,-3.338833,5.534844,-10.205499
4.358942,1.415323,2.965025,-9.196008,-0.819594,8.702934,-11.988944
4.392442,0.973577,2.870301,-9.09455,-0.470028,8.006796,-10.957305
4.425687,1.275407,2.919684,-9.236262,-1.740946,10.002434,-13.857236
4.459588,1.276155,2.980738,-9.716317,-2.437983,16.293723,-18.074623
4.49234,1.385095,2.963679,-9.676212,-2.990614,17.003329,-11.595832
4.525677,1.184873,3.081448,-9.636856,1.64727,21.483639,0.857454
4.559962,1.086557,3.060647,-9.374382,4.948543,26.81841,5.299755
4.592383,1.521569,3.110478,-9.710331,3.988433,15.359801,12.582578
4.625852,0.989888,0.062401,-9.768991,-0.430672,18.200922,-18.931778
4.659458,3.527832,2.650626,-11.787225,-2.090961,9.796525,-16.833934
4.692575,-0.906687,6.059342,-11.28233,2.469109,7.898005,-14.042644
4.725711,2.767946,2.301808,-11.420001,-1.213904,3.358886,-9.171467
4.759384,4.814762,4.432723,-26.249169,-0.586151,3.431762,-9.474494
4.792502,11.93193,2.795181,-22.100767,-0.702424,3.436401,-9.266789
4.825761,7.873913,-4.760591,-4.777351,-0.677284,3.235879,-9.14917
4.859121,7.270851,-1.975885,-5.657701,-0.818397,3.34437,-9.184037
4.892484,7.840393,1.549403,-10.527381,-0.595729,3.384774,-9.230875
4.925735,4.187459,4.595984,-10.424577,-0.832164,3.327311,-9.16997
4.959217,-1.111249,7.817497,-10.699471,-0.835307,3.49536,-9.130614
4.992596,-1.753067,9.252274,-12.783548,-0.648702,3.520051,-9.140191
5.025721,0.778892,7.908929,-11.677836,-0.688956,3.5624,-9.168773
5.058999,2.555453,9.923422,-13.40292,-0.558168,3.652635,-9.225488
5.092434,5.205031,23.323649,-22.224073,-0.572983,3.551626,-9.370192
5.125869,2.345055,29.147453,-4.373614,-0.483197,3.767112,-9.548268
5.159429,-1.088054,25.753551,21.913264,-0.996921,3.879044,-9.993006
5.19237,-12.63585,22.230507,-1.326136,-0.965197,4.018063,-10.450614
5.225721,12.589012,12.39732,-27.034944,-0.339689,2.278164,-12.498329
5.259255,-5.063019,10.227048,-14.599166,-2.734276,2.979391,-13.59596
5.292378,-0.235987,3.393303,-9.189573,2.323207,0.70826,-14.592282
5.325663,1.100474,3.228547,-9.720058,-1.892385,0.501753,-12.977635
5.359188,1.006498,3.083692,-9.590916,-6.393196,15.044653,-20.449457
5.392409,1.182628,3.016951,-9.536595,-12.037728,-0.132135,-13.950763
5.425889,2.469707,2.961284,-12.695708,-1.723288,-2.499486,-7.248405
5.459047,1.179037,2.977895,-9.265891,0.574928,-1.84405,-6.492259
5.492373,1.139082,2.975949,-9.339216,-3.561502,2.436486,-8.471886
5.525851,1.181431,2.939137,-9.620096,-4.3585,4.838854,-10.065733
5.559116,1.226623,3.07217,-9.306893,-0.351212,5.98916,-10.483087
5.592549,1.091795,3.024434,-9.175058,0.784578,6.682156,-11.024196
5.625835,1.131301,3.046132,-9.062526,-0.605455,9.253471,-13.840327
5.659373,1.273461,2.90846,-9.57251,-2.152614,13.475946,-17.721017
5.692299,1.263286,2.989417,-9.645086,-1.846444,15.872777,-10.73763
5.725746,1.305485,3.184103,-9.482874,3.958655,21.642261,-0.926739
5.759282,1.305335,3.190687,-9.459978,4.106651,23.700001,3.07202
5.792464,1.389135,3.211188,-9.873442,5.04611,25.942401,14.369165
5.825944,2.661549,3.254285,-10.648592,-3.118858,9.151863,-14.737137
5.859019,-0.120014,-4.548996,-10.265506,-0.372312,8.592947,-19.345691
5.892409,1.368335,5.42306,-11.403541,-2.0115,5.408545,-12.957882
5.925908,4.281734,3.870515,-13.857685,1.141776,4.028538,-10.608039
5.959123,3.786415,5.751676,-15.304882,0.085596,3.05526,-9.599296
5.992659,7.776495,10.354544,-28.305712,0.040553,2.666787,-9.267388
6.025813,8.827587,-1.319252,-14.324571,-0.471525,3.044336,-9.414187
6.059228,7.262172,-4.873272,-6.858585,-0.504895,3.156868,-9.289984
6.092474,5.32265,-2.096348,-7.956665,-0.513575,3.470519,-9.446361
6.125833,4.239684,4.131791,-13.867412,-0.844884,3.385672,-9.153509
6.159173,1.310872,5.627024,-10.826218,-0.755697,3.373551,-9.159345
6.192487,-1.973042,7.121957,-10.833251,-0.619223,3.592029,-9.182839
6.225741,0.918059,6.118152,-12.004357,-0.725469,3.415301,-9.173562
6.259254,2.6195,8.205372,-15.568104,-0.694942,3.584547,-9.128968
6.292545,3.145644,13.406512,-15.69545,-0.660674,3.505835,-9.242098
6.325924,3.41141,25.651195,-10.122148,-0.609645,3.709499,-9.347297
6.359142,1.561375,27.806353,3.778335,-0.56176,3.828166,-9.642991
6.392469,-5.07963,28.552622,19.151304,-0.641968,4.129397,-9.713623
6.425948,-6.742013,0.542605,-34.545224,-0.822288,4.162917,-10.737031
6.45916,22.046446,0.88843,-23.174754,-1.474432,1.417568,-12.900419
6.492661,-8.315509,14.580161,-20.177406,1.252661,3.710098,-13.276921
6.525794,2.19212,4.702979,-10.249644,0.434114,1.995638,-14.375899
6.557993,0.687011,3.231091,-9.524325,-3.680768,0.437406,-14.086639
6.592501,1.119329,2.689383,-9.650324,-11.143611,24.661008,-26.134841
6.625887,1.226324,3.113322,-9.540037,-6.77673,1.573645,-13.020882
6.659303,0.981358,3.060498,-8.989351,-0.828723,-2.470605,-6.690237
6.69248,1.192056,3.064388,-9.518339,0.358245,0.881397,-6.984884
6.72587,1.197593,3.014258,-9.269782,-2.52702,2.032002,-7.199023
6.759308,1.228868,3.024134,-9.32949,-6.372395,5.508806,-9.536595
6.792504,1.157189,2.936144,-9.260055,-2.707191,7.489181,-9.803558
6.825811,1.216896,2.976398,-8.667319,-0.153683,7.92524,-10.644402
6.859302,1.186818,2.90861,-9.268734,-1.16946,8.163472,-11.39561
6.892534,1.119778,3.028474,-9.380518,-1.277352,13.741263,-16.168771
6.926023,1.235602,3.022339,-9.290433,-0.885138,12.450293,-13.52054
6.959133,1.328081,3.062443,-9.364207,7.551731,26.580029,-8.042859
6.992484,1.247723,3.1015,-9.398924,2.603189,23.20573,7.615778
7.025953,1.191607,2.935097,-9.53869,5.910597,21.956511,16.86057
7.059186,1.678096,2.961434,-9.786798,6.296077,15.059617,-17.025926
7.092711,2.911004,3.123797,-11.27395,-0.314549,6.935651,-13.473252
7.126326,2.296421,5.855678,-12.090402,-0.244517,3.927678,-11.207209
7.159295,3.190837,2.835435,-11.904994,-0.428877,4.359398,-9.675913
7.192525,1.544914,-2.689682,-28.035307,-0.457907,2.945871,-9.231473
7.225746,6.670634,0.753752,-26.66338,-0.57403,3.120055,-9.260953
7.259396,7.842936,-4.587604,-13.05515,-0.646906,3.001838,-9.230576
7.292517,8.542667,-2.164735,-8.51184,-0.777096,3.064837,-9.230127
7.326513,6.006668,0.426333,-7.3554,-0.636132,3.242314,-9.179547
7.359226,5.890246,4.558274,-9.248682,-0.914767,3.504339,-9.168923
7.392647,5.447751,6.590275,-10.266554,-0.704818,3.440142,-9.172215
7.426363,4.755503,6.674674,-10.630336,-0.780987,3.506882,-9.154258
7.459583,5.358564,6.837037,-10.785366,-0.668006,3.454657,-9.149469
7.492741,4.68577,9.503973,-11.167404,-0.672795,3.387916,-9.134056
7.526695,3.09731,16.657654,-15.212103,-0.690303,3.500747,-9.190771
7.559675,-3.041643,21.779334,-8.192951,-0.618624,3.522894,-9.339366
7.592795,-0.340887,19.997086,4.118772,-0.658728,3.602654,-9.499035
7.626199,-4.961262,22.232303,9.856233,-0.717388,4.036469,-9.556049
7.658181,-3.499999,8.87652,-2.601543,-0.684766,4.310914,-10.389261
7.692619,15.045252,1.702637,-23.8682,-1.022061,3.531424,-10.898197
7.725914,-6.7266,7.394606,-16.267984,-2.200051,0.364081,-13.148378
7.759354,1.738402,3.996963,-10.323867,-0.076617,6.221406,-16.745195
7.79267,1.148659,3.106438,-10.168837,0.747616,-0.227008,-13.47415
7.826047,1.196994,2.99226,-9.972655,-0.975672,2.640899,-13.157057
7.859234,1.129056,3.007823,-9.460277,-9.942726,5.303795,-20.040782
7.892571,1.06022,2.94213,-9.356425,-4.452626,-0.554128,-7.884837
7.926045,1.141177,2.893047,-9.297316,-3.504488,-4.90784,-6.819678
7.959362,1.138484,3.129782,-9.480779,-2.207682,1.237697,-7.274593
7.992847,1.093441,2.896339,-9.302853,-1.893133,4.832569,-9.444715
8.025921,1.256701,2.884368,-9.315872,0.025589,6.338875,-10.649191
8.059246,1.281093,2.947218,-9.369594,1.929646,7.244963,-11.759092
8.092669,1.271366,2.96323,-9.359717,0.795203,7.415706,-12.449545
8.125947,1.252063,2.921928,-9.319015,-0.293151,11.27829,-16.682495
8.159418,1.279597,2.985826,-9.393387,-1.351425,10.256228,-16.656008
8.192577,1.248022,2.880477,-9.333081,2.247637,19.934835,-2.984778
8.225923,1.250716,3.047329,-9.476888,3.189939,22.763984,5.140535
8.25948,1.322993,3.043887,-9.791737,4.336653,25.382137,16.702697
8.292616,1.900615,3.039099,-9.896636,3.064538,18.419251,-17.543989
8.325904,-1.149856,-2.705395,-10.105089,-3.380285,10.035355,-12.054787
8.359224,3.579908,6.84392,-11.921754,0.153983,6.477445,-10.483386
8.392584,2.119992,3.078305,-13.627235,1.055581,2.84561,-9.35882
8.426139,4.700285,11.220228,-16.131061,-0.313203,3.094018,-9.649875
8.459246,8.042261,-0.743875,-21.855352,-0.593933,3.301722,-9.429601
8.492578,5.189767,-3.3318,-11.858455,-0.818397,3.135469,-9.2204
8.526068,7.46434,-3.032065,-10.10883,-0.776797,3.266556,-9.224889
8.559361,9.20349,-1.666723,-9.845758,-0.73744,3.265059,-9.282651
8.592787,3.735986,1.870387,-9.779616,-0.674141,3.234532,-9.244193
8.625952,1.311022,4.597331,-10.4988,-0.807623,3.276283,-9.135852
8.659267,-0.996772,6.31164,-11.725273,-0.642118,3.280772,-9.210074
8.692728,0.050879,4.74847,-9.730682,-0.80867,3.295587,-9.16593
8.725981,3.142053,7.343129,-14.194232,-0.702424,3.210889,-9.236561
8.758398,3.601008,15.701137,-18.396505,-0.680127,3.241416,-9.322606
8.792784,-8.974536,30.897079,7.512675,-0.546945,3.281071,-9.360017
8.824467,-2.77872,30.463413,-0.442195,-0.584655,3.462139,-9.642543
8.8597,-5.970305,29.767574,18.413265,-0.563406,3.518704,-10.184699
8.892796,9.125077,29.247415,-40.984809,-0.686113,3.670442,-10.797636
8.925936,-1.109303,-1.01024,-11.391719,-2.177754,3.111077,-12.192159
8.959285,0.969237,3.340928,-9.950657,-0.53228,-3.98574,-12.906555
8.992761,1.442109,3.453909,-9.934346,2.024819,3.621958,-15.21779
9.026002,1.41233,3.050771,-9.282202,-3.385672,4.59778,-10.769204
9.059467,1.151802,3.006776,-9.221597,-3.610286,11.284126,-18.184461
9.092667,1.234255,3.015754,-9.658554,-8.706526,3.65877,-13.451255
9.126,1.088503,2.965025,-8.950444,-4.660031,-0.421694,-9.341012
9.159544,1.432831,3.027127,-10.06708,-2.945871,0.287314,-7.232393
9.192646,1.259545,2.95066,-9.498287,-2.615459,1.483111,-7.741778
9.225955,1.312668,3.068429,-9.311383,-2.262003,4.831671,-10.359482
9.259452,1.312818,3.018598,-9.301357,-2.003869,5.325942,-9.808946
9.292667,1.2781,3.039099,-9.226834,-0.09233,5.938281,-10.673134
9.324472,1.256402,3.011714,-9.3042,-0.168648,7.357944,-13.211078
9.359316,1.268972,3.120355,-9.22878,-4.443647,12.343298,-19.498925
9.392722,1.28259,3.219867,-9.376028,-2.377377,20.690232,-11.301784
9.426005,1.306682,3.273589,-9.143034,5.304094,25.654338,-0.774552
9.459376,1.598187,3.412757,-9.405658,12.870191,34.854237,21.350756
9.492866,0.644063,1.323891,-9.145429,8.45767,-1.289473,-30.36824
9.526112,2.090512,1.039121,-10.442384,-3.719974,8.033432,-19.37951
9.557988,2.519688,7.588992,-12.180487,3.359634,7.344027,-11.830322
9.59268,2.316772,4.307472,-11.273202,-1.373423,3.130082,-9.297316
9.626148,3.622108,17.407066,-15.352618,-0.168049,3.723117,-9.481676
9.659353,11.155433,10.214478,-33.037721,-0.290307,3.35305,-9.294922
9.692806,11.328719,-1.62198,-14.917307,-0.521955,3.078904,-9.230426
9.726007,10.193528,-2.369446,-8.779552,-0.665612,3.372204,-9.176854
9.759351,7.67369,-1.118731,-7.595577,-0.591838,3.451664,-9.187329
9.792866,4.820897,2.613813,-7.72397,-0.512976,3.435054,-9.18673
9.826107,4.016566,7.263369,-11.767772,-0.546496,3.39061,-9.13226
9.85953,1.460665,8.188911,-11.657186,-0.472423,3.55387,-9.153958
9.893171,0.353157,6.213923,-9.218754,-0.603211,3.507331,-9.059683
9.924973,-0.789666,25.402788,-28.13048,-0.497563,3.458997,-9.220549
9.959367,1.021014,12.796567,-9.237908,-0.269208,3.560754,-9.246887
9.993012,0.488884,35.348058,13.766852,-0.40239,3.490721,-9.457584
10.026464,-3.017101,30.770331,5.110007,-0.199324,3.722219,-9.553804
10.059345,-3.768309,41.204185,-11.984006,-0.013468,3.822629,-10.123345
10.093123,-0.882594,-6.783913,-7.059406,0.144106,3.936507,-10.868867
10.126204,0.286417,5.190815,-10.806615,-4.349073,1.279896,-12.769781
10.159373,1.023558,2.333382,-8.86006,0.539463,6.838234,-14.495314
10.192819,1.160631,3.4156,-9.278461,-0.956518,2.086322,-13.081038
10.226104,1.275108,3.161507,-9.440375,-1.840608,2.134956,-12.806892
10.259408,0.955919,2.954999,-9.225937,-8.465601,23.344599,-28.380383
10.2926,0.677733,3.047778,-7.951577,-11.067742,-0.176279,-11.57144
10.326213,0.533926,3.02159,-7.812858,-0.604109,-2.556799,-7.366623
10.359419,1.167963,2.825857,-9.839922,0.394758,-0.730557,-6.871006
10.393212,1.037624,2.779019,-9.273822,-1.246975,0.909081,-7.797894
10.424825,0.90519,2.835734,-9.021225,-0.944097,4.923702,-10.749302
10.459364,1.040018,2.848603,-9.434988,0.187503,6.515454,-11.386481
10.492879,1.292915,2.987023,-9.909805,-0.570888,6.109772,-11.061158
10.52606,1.176044,2.954999,-9.579393,-1.119928,7.767816,-13.973658
10.559437,1.045855,3.073965,-9.640896,-0.684317,14.075715,-16.346846
10.592796,0.838599,3.115716,-9.3042,4.442749,31.271784,-10.467075
10.62628,1.056928,3.141005,-9.347147,2.789045,24.231084,5.859719
10.659377,0.638826,1.476976,-9.226386,8.82654,22.290664,20.961834
10.692706,2.31767,1.971546,-10.621058,2.540039,3.517657,-16.974897
10.726279,2.438731,1.648766,-11.359396,0.254094,22.949542,-19.396419
10.759411,1.541322,5.288831,-10.862881,1.085061,4.712556,-11.200176
10.792986,2.808648,3.638269,-9.890651,0.073475,3.40303,-9.696863
10.826036,5.459573,3.829213,-29.56361,-0.637778,3.251592,-9.283549
10.859393,12.888298,6.417288,-26.37427,-0.832164,3.368163,-9.234466
10.892894,8.974237,-5.328785,-4.6729,-0.589294,3.100303,-9.268286
10.924643,5.883212,-0.871221,-6.687394,-0.674141,3.151331,-9.269034
10.959384,5.542924,4.450381,-11.207508,-0.669054,3.164649,-9.255416
10.992899,2.918786,5.518982,-7.007181,-0.877656,3.248748,-9.154108
11.026097,0.315298,7.710802,-8.500019,-0.841592,3.282418,-9.159196
11.059548,0.673244,7.009276,-9.993605,-0.893368,3.450916,-9.086918
11.092751,1.251913,6.972015,-10.724162,-0.894715,3.269549,-9.092156
11.126067,3.587989,7.952325,-12.329382,-0.80882,3.353349,-9.177602
11.159617,2.535251,18.965298,-16.24449,-0.7542,3.419491,-9.242397
11.193196,2.441275,24.962539,-6.654622,-0.643465,3.543695,-9.329041
11.226242,-2.509063,22.797205,6.900336,-0.688806,3.630637,-9.535548
11.259488,-4.013125,27.735871,14.655132,-0.806276,3.785368,-9.846057
11.292933,-12.554744,2.453845,-36.606406,-1.426696,4.038564,-10.57392
11.326361,10.009317,3.912116,-9.288637,-1.062764,3.277031,-11.264822
11.35954,-0.343131,2.551562,-9.416881,-2.804907,0.48619,-13.355633
11.392736,0.745521,3.562849,-10.092968,-2.054747,1.363397,-14.13228
11.426264,1.03104,3.1642,-9.680103,-2.395484,-0.287763,-11.017911
11.45947,1.112296,2.97161,-9.081082,0.497862,5.369488,-10.383724
11.492911,1.183676,3.127837,-9.515047,-8.645771,15.944157,-20.935796
11.526122,1.097781,2.97984,-9.220101,-10.189039,0.174633,-8.241885
11.559356,1.033434,2.922826,-9.310186,-3.383726,-0.47766,-6.329448
11.592921,1.142524,2.982833,-9.347447,-3.493864,1.977382,-6.758175
11.626185,1.218842,3.019944,-9.5764,-4.827033,3.515861,-7.431119
11.659554,1.685129,3.016054,-11.078816,-2.704647,5.993948,-9.662146
11.692889,1.333618,3.050172,-9.933598,-1.134742,6.398283,-9.907111
11.726331,1.079674,3.00498,-9.17401,-1.236949,6.794987,-11.203917
11.759447,1.267625,3.117661,-9.373933,-2.601393,8.657144,-14.762127
11.792852,1.20298,3.098656,-9.236861,-4.439757,12.752572,-16.627726
11.825252,1.088204,3.15178,-9.150816,3.704411,28.751648,-12.75332
11.858632,1.231412,3.193829,-9.461774,4.35027,21.111627,2.672324
11.891907,1.388986,3.451066,-9.475242,8.566909,27.950759,13.398132
11.925299,1.78135,3.120055,-9.789642,3.448522,2.661849,-14.060302
11.958617,1.732566,2.244943,-10.663706,-3.793898,11.410424,-18.137773
11.991976,2.114006,2.819872,-10.745561,2.479733,12.512096,-11.602117
12.025272,0.286417,6.344262,-10.818437,2.042327,4.11967,-9.382912
12.058499,2.560092,12.733567,-12.698102,-0.564603,3.384026,-9.38381
12.091995,5.898925,4.37975,-35.72456,-0.663367,3.259074,-9.27891
12.125257,7.760633,-0.676985,-16.126422,-0.698084,3.110179,-9.177752
12.158588,6.47954,-2.97984,-6.194919,-0.579717,3.066334,-9.293426
12.191912,7.523449,-0.952477,-8.33586,-0.598422,2.990465,-9.255566
12.225199,5.485312,1.613899,-8.443603,-0.857155,3.057804,-9.190022
12.258728,4.152292,5.7629,-10.348708,-0.808521,3.045833,-9.208279
12.291905,1.711466,7.352407,-10.980949,-0.621018,3.086386,-9.233269
12.325291,1.405147,6.721961,-10.965685,-0.817499,3.066932,-9.211721
12.358617,1.904356,5.247978,-10.484434,-0.87601,3.278078,-9.17431
12.391975,3.588887,7.744322,-13.988323,-0.756744,3.012911,-9.223991
12.425267,3.804672,15.926798,-16.422715,-0.854312,3.273589,-9.293575
12.458658,-5.883212,21.772899,-2.115203,-0.722327,3.272691,-9.299561
12.491982,2.225939,24.652329,-1.000812,-0.712899,3.64216,-9.520434
12.525274,-4.435118,23.051299,17.283611,-0.727414,3.915408,-9.776024
12.557979,-8.791373,10.126488,-28.953217,-1.188913,4.01073,-10.23857
12.592023,9.760012,16.978189,-6.235921,-1.699794,3.091923,-11.180423
12.625245,-2.835584,6.628434,-12.868246,-2.311535,0.246163,-13.18908
12.658735,1.602227,3.776838,-10.08369,-0.027534,6.488668,-15.262084
12.691891,1.180683,3.149236,-9.45504,-2.236115,-0.17194,-12.331477
12.725258,1.534588,2.430052,-11.700582,-0.05432,3.024434,-10.503588
12.758844,1.004104,3.052716,-9.938387,-6.842424,20.732132,-22.242179
12.791942,0.765124,2.82496,-8.90585,-7.885734,2.181944,-8.85572
12.825292,1.124866,3.06364,-9.161141,-3.555367,-1.090598,-5.189168
12.858607,1.045406,2.953204,-9.260953,-2.46866,1.365492,-6.459039
12.891885,1.100774,2.958591,-9.343107,-3.12245,2.720808,-7.239576
12.925274,1.055881,3.00498,-9.183887,-2.582388,6.444224,-9.37962
12.958537,1.083864,2.980887,-8.938921,-0.830518,8.169008,-10.716829
12.991966,1.233357,2.997648,-9.544526,0.074223,8.555237,-10.433406
13.025334,1.124716,3.041343,-9.48856,-1.297554,8.333167,-12.01169
13.058651,1.204476,3.027576,-9.518489,-1.080572,12.963269,-15.939218
13.092,1.120676,2.996151,-9.429002,-1.553294,16.480776,-12.54786
13.125313,1.157787,3.066034,-9.356126,4.557825,21.537511,-1.933836
13.158642,1.14836,3.217922,-9.681899,5.744942,24.5597,10.980201
13.192002,1.322993,3.209692,-9.842765,6.880134,9.111909,2.127773
13.225322,1.766984,2.651074,-9.877183,-0.133332,14.875706,-14.517461
13.258672,0.793108,0.993928,-10.722815,0.088289,8.868589,-13.360122
13.291245,3.252639,2.989417,-11.362838,2.062678,5.114796,-11.532982
13.325344,4.401149,4.134485,-12.544269,-0.379195,3.116314,-9.755972
13.358644,2.633117,10.924683,-10.535462,-0.413763,3.012313,-9.306744
13.39165,5.933492,3.575419,-36.319241,-0.75869,3.224806,-9.102182
13.425249,7.87511,0.277887,-13.6838,-0.756445,3.265957,-9.165032
13.458655,7.920152,-4.505151,-3.979156,-0.6496,3.228696,-9.243894
13.491983,8.132945,-1.539676,-5.923017,-0.531083,3.369061,-9.278761
13.525322,4.552438,3.69229,-9.741157,-0.66621,3.061395,-9.154557
13.557738,4.000555,6.24894,-10.998158,-0.67459,3.293641,-9.241799
13.59107,1.67226,8.450636,-11.532234,-0.599919,3.409166,-9.228181
13.624462,2.455341,6.105732,-8.091194,-0.807024,2.966821,-9.09455
13.657766,4.914873,7.7536,-11.080013,-0.769763,3.255482,-9.203939
13.691111,5.880669,15.593992,-16.449052,-0.708559,3.493564,-9.338917
13.724409,4.822543,29.819799,-12.400312,-0.776348,3.508977,-9.2412
13.757766,0.991684,24.245599,1.162277,-0.782932,3.322822,-9.389945
13.791118,-6.879834,24.07321,17.909268,-0.383535,3.764418,-9.784105
13.82443,-5.849094,-8.161975,-23.077935,-0.610394,3.749005,-10.308005
13.857769,4.677689,5.190815,-18.60391,-0.98091,4.144511,-11.875066
13.891097,1.275108,12.456129,-16.316618,-1.611355,2.117597,-13.141644
13.92442,-2.082731,1.34963,-9.705991,0.399397,1.658343,-13.962585
13.958596,1.525759,2.752532,-10.216124,0.072726,0.873915,-13.297572
13.991095,1.258048,3.062742,-9.679205,1.240091,0.33954,-10.213879
14.024432,1.415772,2.884517,-9.082878,-4.006091,26.224627,-22.203721
14.057755,1.328231,3.58739,-9.503075,-9.242996,5.808241,-12.797315
14.091102,1.103317,3.042391,-9.315872,-6.310443,-2.370045,-3.046431
14.124435,1.118282,2.940484,-9.334727,-1.147761,-1.116935,-4.938965
14.157804,1.17335,2.915643,-9.692673,-0.018855,2.46417,-7.906535
14.191099,1.125914,2.849202,-9.132859,-1.812475,6.207938,-10.271791
14.22443,1.172153,2.952904,-9.352535,-0.451772,7.800288,-10.447322
14.258475,1.195049,2.922976,-9.458931,1.325687,8.022508,-11.167703
14.291883,1.170657,2.928213,-9.359568,-1.010988,8.702934,-12.536936
14.325238,1.225725,2.972807,-9.476888,2.545127,13.45335,-15.329423
14.358551,1.189362,2.883021,-9.264544,1.521121,28.050421,-6.616912
14.391887,1.259694,3.050621,-9.347746,4.18252,22.7155,2.160395
14.425254,1.150455,3.051968,-9.371539,5.707532,25.482398,19.536186
14.458572,1.38734,2.830796,-10.162253,3.481443,13.127727,-18.206758
14.492018,1.99055,2.337124,-9.718262,-2.335627,5.980181,-14.347317
14.525261,1.724485,2.321411,-11.266767,-0.014066,4.8405,-10.198915
14.558542,1.480717,5.5112,-9.933897,-1.208816,3.450317,-9.326946
14.591914,3.699024,3.873208,-11.333508,-0.465689,3.679421,-9.30854
14.625213,4.964854,14.688652,-13.52862,-0.614284,3.381332,-9.211571
14.65855,10.388812,12.66952,-29.997425,-0.583009,3.112873,-9.154557
14.691881,9.935394,-1.683932,-9.516992,-0.63718,3.289451,-9.220849
14.725212,9.103678,-2.642844,-4.410127,-0.594382,3.223908,-9.238806
14.758693,5.899823,0.021698,-6.530269,-0.829321,2.948265,-9.196008
14.791932,3.665055,3.320427,-8.823996,-0.847129,3.690345,-9.092605
14.825364,2.889156,5.825151,-10.266703,-0.714994,3.487728,-9.157101
14.858532,1.819509,5.72923,-10.657122,-0.51971,3.593226,-9.151115
14.891871,3.390311,5.268928,-9.447707,-0.716939,3.518854,-9.206932
14.925208,5.567316,21.052518,-24.335684,-0.678182,3.608939,-9.005363
14.958534,-1.191906,31.762015,-11.471628,-0.548741,3.63348,-9.235813
14.991876,-0.920753,26.847142,0.232096,-0.549938,3.586044,-9.364656
15.025437,-5.837571,23.862364,21.870167,-0.430074,3.765316,-9.639101
15.058721,-7.903243,3.875603,-38.146381,-0.960708,3.730599,-10.612079
15.091878,2.608127,2.998246,-14.263666,-1.281542,3.371456,-11.809073
15.125188,-2.135255,4.16576,-10.493113,-1.939822,1.002907,-13.973359
15.158543,0.877656,2.79129,-8.935031,0.667856,3.718478,-12.12482
15.19188,0.919556,3.125892,-9.238058,0.325174,2.22115,-10.053761
15.225187,1.185621,2.980139,-9.30854,-1.280046,4.624266,-9.769589
15.258563,1.130104,3.064089,-9.493947,-6.287548,2.685492,-14.736987
15.291881,0.994377,2.828102,-9.180744,-3.392256,-1.607614,-7.747464
15.32537,1.114241,3.053764,-9.3042,-3.236029,-0.991684,-5.365149
15.358545,1.130702,3.021141,-9.363608,-3.671041,0.844286,-7.18346
15.391875,1.098679,3.090725,-9.365254,-5.939777,7.864635,-12.426051
15.425187,1.046752,3.006626,-9.342508,-6.48358,9.007608,-11.250456
15.458301,1.160631,2.99675,-9.295521,-8.303687,8.656545,-11.729014
15.491895,1.136239,2.955598,-9.319763,7.443988,54.341938,10.760525
15.525196,1.276454,2.952904,-9.262449,7.107441,28.757633,1.100474
15.557986,1.087605,3.016203,-9.439627,3.793449,1.455577,-12.504913
15.591872,1.280644,3.096113,-9.359119,3.571379,5.417823,-12.362453
15.62573,1.130403,2.945871,-9.301806,-1.054683,3.048526,-9.324551
15.65854,1.007845,3.119307,-9.324402,-0.131985,3.148637,-9.41733
15.691881,1.117833,2.898734,-9.35014,-0.368571,3.544144,-9.255716
15.725182,1.123968,2.78306,-9.237908,-0.208453,3.786116,-9.367499
15.758566,1.195198,2.874042,-9.360615,-0.354055,3.187694,-9.226834
15.79188,1.213155,2.859976,-9.562933,-0.415858,3.105989,-9.185832
15.825275,1.033285,3.028474,-9.334428,-0.425884,3.260869,-9.223542
15.858557,1.143122,2.94617,-9.481826,-0.307516,3.272093,-9.214564
15.891905,1.045555,2.758967,-9.294922,-0.36049,3.501046,-9.247934
15.925351,1.159733,2.957394,-9.376926,-0.308564,3.370109,-9.31273
15.958229,1.181281,3.151032,-9.46327,-0.346872,3.343173,-9.293126
15.991876,1.159434,3.131428,-9.537792,-0.564902,2.906964,-9.087517
16.024547,1.091945,2.968317,-9.651072,-0.278934,3.416648,-9.259606
16.057702,1.071144,2.844263,-9.427206,-0.280281,3.24396,-9.315273
16.091984,1.09389,2.949462,-9.423016,-0.256189,3.152378,-9.259157
16.12521,1.193103,2.787698,-9.239704,-0.438753,3.158813,-9.183438
16.158541,1.120826,2.799969,-9.340413,-0.373509,3.271045,-9.219801
16.191856,1.104066,2.942429,-9.444116,-0.277438,3.234083,-9.286093
16.225081,1.116187,2.898584,-9.403862,-0.17179,3.275385,-9.345202
16.258544,1.159434,2.933301,-9.360765,-0.179123,3.225554,-9.333829
16.29188,1.149108,2.881076,-9.346399,-0.154282,3.412458,-9.298962
16.325209,1.082966,2.897686,-9.367798,-0.148446,2.934349,-10.176169
16.35854,1.092992,3.196523,-9.469855,-0.240177,3.194278,-9.236861
16.391915,1.139381,2.867309,-8.963164,-0.227607,3.281071,-9.301057
16.425209,1.214801,2.856085,-9.512652,-0.370516,2.755076,-9.145279
16.458035,1.08566,2.958291,-9.511006,-0.289559,3.111825,-9.291779
16.491896,1.193103,2.822266,-9.351936,-0.233443,3.088481,-9.303152
16.52521,1.194001,2.981336,-9.39653,-0.203065,2.890503,-9.257661
16.558541,1.15674,2.876137,-9.30001,-0.173137,3.162255,-9.347447
16.591895,1.1735,2.947068,-9.362561,-0.230749,3.027576,-9.232222
16.625319,1.198939,2.963379,-9.367648,-0.213092,3.081148,-9.312281
16.658542,1.14402,2.939287,-9.395183,-0.250652,3.093718,-9.264096
16.691874,1.084014,2.8498,-9.348793,-0.238531,3.089828,-9.272027
16.725289,1.148061,2.981336,-9.369893,-0.229702,3.073666,-9.272476
16.758543,1.192804,2.85414,-9.310036,-0.223267,3.039398,-9.252423
16.791878,1.15674,2.922078,-9.356575,-0.264419,3.025182,-9.219951
16.825215,1.152849,2.925669,-9.367648,-0.262174,3.049274,-9.245241
16.858547,1.151951,2.929261,-9.369145,-0.183762,3.03416,-9.285644
16.891225,1.073239,2.95455,-9.443966,-0.23479,3.077706,-9.270829
16.925209,1.136688,2.914745,-9.384857,-0.254243,3.143998,-9.323953
16.958569,1.105263,2.90846,-9.381565,-0.306768,3.084141,-9.242697
16.991864,1.111997,2.933451,-9.373784,-0.165954,3.100153,-9.329938
17.025248,1.133545,2.919085,-9.38815,-0.210548,3.038799,-9.281304
17.058546,1.128906,2.883171,-9.355976,-0.270106,3.072319,-9.272326
17.091853,1.131899,2.962631,-9.380967,-0.272649,3.077258,-9.324402
17.125207,1.133994,2.900829,-9.369444,-0.202916,3.140706,-9.287739
17.158532,1.084762,2.909358,-9.370043,-0.317542,3.081597,-9.235065
17.191877,1.02251,2.917289,-9.386803,-0.258433,3.073217,-9.255416
17.225213,1.075933,2.896938,-9.373335,-0.27654,3.078305,-9.277264
17.258303,1.075783,2.91714,-9.386803,-0.295096,3.108383,-9.298064
17.291413,1.109004,2.888558,-9.383511,-0.299585,3.136666,-9.274271
17.324674,0.960408,2.874342,-9.426608,-0.582859,3.040445,-8.821601
17.35853,1.030441,2.909209,-9.397278,-0.401043,3.053315,-9.853988
17.391883,1.165569,2.923275,-9.501878,-0.319188,3.019795,-9.419275