time_tick,acc_X_value,acc_Y_value,acc_Z_value,acc_A_value,acc_B_value,acc_C_value
0.007736,0.714545,3.248299,-9.242697,-1.351425,3.659069,-8.93548
0.037892,0.74178,3.507032,-9.32081,-1.313566,3.494911,-8.910938
0.071031,0.959211,3.452412,-9.259307,-1.311471,3.725062,-8.973339
0.104345,0.965047,3.348111,-9.229827,-1.369832,3.677924,-8.927997
0.13766,0.913271,3.450617,-9.264844,-1.405596,3.672986,-8.932936
0.171015,0.716191,3.47426,-9.281753,-1.310423,3.678224,-8.936078
0.204364,0.906537,3.370258,-9.219053,-1.284086,3.730449,-8.944907
0.237759,0.928086,3.352601,-9.16997,-1.380157,3.72596,-8.929943
0.271027,0.750908,3.431462,-9.206633,-1.363098,3.724164,-8.925154
0.304343,0.752554,3.514514,-9.343107,-1.267625,3.790157,-8.947451
0.337655,1.181431,3.247551,-9.204388,-1.474881,3.410063,-8.875922
0.370989,0.860597,3.36547,-9.254818,-1.575291,3.682414,-8.895824
0.404343,0.984351,3.385971,-9.192417,-1.454081,3.546837,-8.970496
0.43766,0.820492,3.524241,-9.285494,-1.301445,3.946234,-8.971095
0.470986,0.883791,3.360532,-9.223542,-1.245478,3.701718,-8.920815
0.504399,0.983154,3.319978,-9.211122,-1.423853,3.629889,-8.890437
0.537658,0.95577,3.377741,-9.185383,-1.474133,3.738829,-8.93937
0.570976,0.841592,3.425776,-9.24539,-1.308927,3.720872,-8.942513
0.604359,0.887383,3.448971,-9.238656,-1.322095,3.727905,-8.927698
0.63766,0.830668,3.463187,-9.282053,-1.338257,3.72581,-8.916924
0.67099,0.949784,3.433408,-9.242846,-1.280644,3.666402,-8.936078
0.704377,0.939758,3.317734,-9.178051,-1.352473,3.644105,-8.964361
0.73771,0.838449,3.523493,-9.156502,-1.263884,3.67119,-8.94371
0.770962,0.907285,3.376693,-9.214863,-1.407542,3.661913,-8.914979
0.80433,0.873466,3.415151,-9.231174,-1.25745,3.703214,-8.958824
0.83751,0.891273,3.415002,-9.245989,-1.448993,3.693188,-8.901062
0.87102,0.888281,3.514365,-9.223991,-1.463508,3.716981,-8.956879
0.904393,0.8802,3.665953,-9.501579,-1.342447,3.625549,-8.955083
0.937691,0.936316,3.633031,-9.740708,-1.292765,3.546837,-8.941465
0.971018,0.75016,3.362327,-9.397278,-1.389734,3.777287,-8.920366
1.004436,1.445401,3.151032,-9.087218,-1.275108,3.689596,-8.925304
1.037703,1.12322,2.952605,-9.019579,-1.506904,3.594274,-8.925154
1.070072,1.319851,3.505685,-9.338767,-1.396468,3.622706,-8.93937
1.104333,0.761683,3.234981,-9.235514,-1.383299,3.708003,-8.970047
1.137715,1.153897,3.432061,-9.322905,-1.303989,3.698575,-8.951342
1.171018,1.141925,3.454058,-9.212618,-1.37866,3.766214,-8.941316
1.204357,1.080572,3.423531,-9.285046,-1.33287,3.778484,-8.815316
1.237686,1.13983,3.522745,-9.313478,-1.182329,3.846422,-8.908843
1.27102,1.204476,3.297981,-9.085123,-1.351874,3.665205,-8.882207
1.304349,1.179486,3.479199,-9.033496,-1.293364,3.806019,-8.946254
1.337687,1.168861,3.293043,-9.380218,-1.352473,3.703214,-8.91872
1.371068,1.1316,3.398691,-8.949995,-1.443606,3.903885,-8.828934
1.404419,1.151802,3.852707,-9.448755,-1.570054,3.549082,-8.932187
1.437372,1.082517,3.677176,-9.230725,-1.145966,3.500448,-8.782844
1.470704,0.984202,3.65039,-9.169372,-1.380007,4.160972,-8.799753
1.504036,0.973427,3.65458,-9.130764,-1.521569,3.632134,-8.866045
1.537369,0.876309,3.628841,-9.197056,-1.302492,3.619115,-8.93099
1.570706,1.088054,3.724314,-9.182241,-1.412929,3.9187,-8.890437
1.60404,1.051541,3.656525,-9.163535,-1.205823,3.769655,-8.853026
1.637398,0.957565,3.580507,-9.132859,-0.933473,4.536576,-8.782844
1.670735,0.931378,3.595621,-9.181343,-1.42086,4.075825,-9.01509
1.704074,0.754649,3.547735,-9.188376,-1.435674,3.391508,-8.877867
1.737297,0.898606,3.628841,-9.19945,-1.471888,3.980203,-9.028707
1.770701,0.766621,3.605348,-9.210523,-1.211509,3.736135,-8.958674
1.804073,1.022061,3.577215,-9.103828,-1.315661,3.743618,-8.88086
1.837373,0.820043,3.557911,-9.158298,-1.26987,3.837893,-8.835219
1.870703,0.988242,3.650839,-9.166977,-1.187866,3.821582,-8.864848
1.904369,0.613686,3.719525,-9.167725,-1.367587,3.779233,-8.94386
1.937659,0.77111,3.647696,-9.179398,-1.234405,3.812154,-8.949396
1.970988,0.848176,3.731197,-9.150666,-1.267775,3.798237,-8.912734
2.004313,0.905789,3.708152,-9.11954,-1.33691,3.901641,-8.832226
2.037691,0.636282,3.63363,-9.178949,-1.411133,3.856299,-8.863801
2.07113,0.94724,3.722219,-9.125825,-1.287678,3.82637,-8.886097
2.104307,0.873316,3.625849,-9.130165,-1.251015,3.895804,-8.889988
2.137657,0.77096,3.571827,-9.130913,-1.442558,3.661763,-8.83462
2.171044,0.937214,3.519153,-9.104277,-1.202381,3.924087,-8.899266
2.204304,0.894715,3.587241,-9.186581,-1.353221,3.831907,-8.928596
2.237653,0.690752,3.527533,-9.189124,-1.270169,3.517357,-8.944458
2.270989,0.745372,3.546388,-9.204538,-1.167065,4.170848,-9.041128
2.304334,0.7753,3.61268,-9.226086,-1.331523,4.237739,-9.143483
2.337684,0.877357,3.518106,-9.194661,-1.297554,2.76181,-9.364955
2.370991,0.862991,3.593675,-9.32919,-2.513104,0.688806,-10.371753
2.404464,0.748813,3.48279,-9.278162,-2.246739,0.339689,-10.585443
2.437692,0.846381,3.492966,-9.209177,-2.692526,0.07946,-10.670889
2.470987,0.760785,3.430565,-9.360915,-2.73682,-0.041301,-10.250841
2.504643,0.906836,3.213882,-9.118343,-2.321261,0.527342,-10.170633
2.537678,0.73355,3.264611,-9.367948,-2.592714,1.627068,-10.753043
2.571027,1.070396,3.123946,-9.2412,-2.223245,1.734811,-10.013956
2.604399,0.828124,3.125293,-9.262749,-1.949399,2.260656,-9.867456
2.637737,1.040467,3.219568,-9.414187,-1.997135,2.570267,-10.135167
2.671065,0.964449,3.011265,-9.25811,-1.968403,2.192568,-9.279359
2.704435,0.931976,3.152528,-9.013593,-1.844798,2.111013,-8.626018
2.737657,0.839497,3.230642,-9.303751,-1.855573,2.655713,-9.476289
2.770985,0.885138,3.56659,-9.324851,-2.199751,2.736371,-9.103229
2.804324,0.52824,3.452861,-9.320062,-1.498674,2.469258,-8.126061
2.837655,0.810616,3.777886,-9.374981,-1.275706,1.990401,-8.617189
2.87097,1.043311,3.692739,-9.137348,-1.974539,3.009918,-10.129032
2.903379,0.726965,3.756337,-9.026911,-1.97394,2.321261,-8.507351
2.937683,0.820492,3.978557,-9.147673,-1.829834,2.554255,-7.952475
2.971094,0.754799,4.105005,-9.172215,-2.26754,3.110029,-8.292614
3.004323,0.87182,4.039162,-9.062826,-2.105476,3.48264,-8.062014
3.037675,0.568643,4.088245,-8.972142,-1.448993,4.076424,-8.157935
3.070988,0.931677,4.424643,-9.139443,-2.450852,4.060112,-5.617746
3.104337,0.76273,4.816408,-8.690813,-0.996173,7.29225,-5.973896
3.137685,0.611591,3.343323,-8.7592,0.379345,-6.028216,-11.244321
3.17099,1.082218,3.723715,-8.93114,1.185621,11.515174,-12.826496
3.204319,0.911026,3.898947,-9.519386,-2.138847,1.576488,-9.728737
3.237653,2.834686,6.786906,-11.063851,-3.984094,5.592157,-11.230853
3.271027,2.369596,6.09361,-10.321622,-3.05945,6.163943,-11.625761
3.304379,-0.502501,6.522337,-10.384023,-0.631194,3.733891,-10.368909
3.337627,6.176662,8.66702,-20.765802,-1.2781,3.975714,-9.390993
3.370995,10.102246,-0.734747,-9.462672,-2.613364,3.253387,-8.91004
3.404321,11.092283,-2.276219,-7.960556,-1.251165,3.178267,-9.306893
3.437657,1.159583,0.43576,-10.078303,-1.573795,3.13053,-8.987406
3.471011,1.186669,1.199538,-10.246352,-1.634999,3.70501,-9.160094
3.50435,0.351811,3.356192,-10.93022,-1.421458,3.434156,-9.14483
3.537655,4.085252,3.702765,-7.314697,-1.820257,3.255033,-8.985161
3.57101,7.880647,3.99427,-4.226815,-1.524862,3.577364,-9.079436
3.604352,6.455148,7.30093,-10.978106,-1.55494,3.364572,-8.937425
3.637654,-0.206208,9.703447,-10.438344,-1.612103,3.423681,-8.972591
3.671024,-0.726666,8.853625,-8.193849,-1.625272,3.70067,-9.008505
3.704328,2.659604,9.704794,-7.697035,-1.788532,3.124694,-8.857366
3.737655,3.716832,16.691623,-10.829959,-2.031852,3.402581,-9.534351
3.771062,-4.468338,18.264969,-8.167362,-1.536833,4.016417,-9.737715
3.804327,-11.159772,23.650619,6.043929,-1.668519,3.346465,-9.787846
3.83768,-0.230899,17.196519,-51.003254,-2.117448,3.326263,-10.48189
3.870991,2.116999,-33.841902,2.953802,-4.213796,4.11144,-12.432935
3.904354,-1.394373,18.2732,-5.304394,-4.321688,5.115095,-14.716486
3.936904,-0.725469,0.379943,-10.242461,-1.507353,1.841057,-16.174308
3.970991,0.625508,3.942493,-11.199577,-4.746974,15.154641,-21.813003
4.004357,1.326285,3.475607,-9.937638,-9.439776,-1.454829,-16.32395
4.037654,1.427743,3.353349,-9.188975,-1.152251,-4.229209,-9.524175
4.07099,1.495532,2.822565,-9.343406,0.341336,-2.019132,-9.518638
4.104359,0.132883,3.582153,-9.364506,0.873915,-0.382038,-7.676683
4.137679,1.168711,4.00265,-9.468059,-0.242422,2.880477,-8.505705
4.170993,0.089187,3.540402,-9.273523,-0.954572,4.40908,-8.535334
4.204346,0.804181,3.747359,-9.032149,-0.728911,6.55047,-9.558294
4.237658,0.601265,3.825323,-9.135253,-2.241801,8.323739,-11.476267
4.270988,0.581812,3.861237,-8.859611,-1.096284,12.417072,-12.575993
4.304335,0.371563,3.830411,-9.200497,-0.736842,19.383849,-13.845714
4.337661,0.956218,4.914723,-9.330986,-0.795203,21.095765,-6.879535
4.370988,0.267861,3.27748,-9.466562,6.860531,23.393682,1.296506
4.404296,1.626469,4.354909,-9.718262,7.498608,25.132383,4.510538
4.437719,2.728141,3.158364,-10.049871,-21.402234,9.645984,-24.055852
4.470901,2.798473,8.163472,-11.061607,-10.717428,8.490442,-15.370426
4.504322,-0.593783,4.322586,-11.424491,14.545594,1.207619,-11.450828
4.537662,16.86476,5.632411,-41.579191,-6.053955,11.373313,-13.066373
4.571021,28.030967,-2.238808,-20.984281,0.617128,4.6313,-10.392403
4.604332,7.379343,-7.221918,-7.45177,-1.01862,2.511458,-8.969149
4.637681,1.095087,5.311427,-9.76495,-2.02003,2.958291,-8.923359
4.671025,4.555431,4.804137,-13.016692,-1.065458,3.249048,-8.69216
4.704334,0.010625,7.893815,-10.581702,-1.66792,3.408268,-8.778205
4.737642,3.00079,8.783891,-9.763753,-2.212621,3.624352,-8.945655
4.770974,5.712021,7.851765,-7.723671,-1.304138,3.467676,-9.03993
4.804336,4.097074,8.709668,-6.243852,-1.130852,3.61253,-9.123581
4.837646,1.661486,10.693635,-11.637133,-1.177391,3.431612,-8.742889
4.870972,2.299114,11.763731,-6.558252,-1.451686,3.753344,-9.076892
4.904325,-0.095472,15.492385,-10.071719,-2.048013,3.818738,-9.096944
4.937639,-2.625037,15.114237,-7.400592,-1.391829,3.356791,-9.659901
4.970996,-3.137414,17.781323,-1.016225,-0.843837,3.616421,-10.485781
5.004315,-2.226088,21.96115,1.64308,-1.426397,3.082495,-10.441337
5.037636,-10.419938,-10.643055,-45.593662,-2.472401,4.050236,-11.665566
5.07142,7.069881,-4.205715,3.616271,-2.328893,6.012953,-15.859758
5.104356,-2.893496,0.330262,-15.753362,-4.515775,0.655286,-15.09628
5.137653,-0.392065,2.277566,-9.43005,3.841933,5.725489,-21.418245
5.171064,0.728911,4.275748,-11.339045,-26.545462,0.775001,-15.400055
5.204371,1.976185,4.156183,-11.50844,-1.520073,-3.904184,-7.842338
5.237658,1.06022,3.211188,-8.225873,-0.664115,-3.61253,-3.776838
5.270973,-0.144705,3.557761,-9.737416,-6.695325,1.97379,-6.347704
5.304355,0.538415,3.812304,-8.699493,-3.783123,2.366902,-6.244301
5.337653,0.319188,3.840137,-9.216958,-2.481978,5.165226,-8.366238
5.371005,0.205011,3.759929,-9.305996,-2.620098,6.194919,-8.527403
5.404363,0.210398,3.837893,-9.21621,-6.699365,7.830965,-10.199963
5.437662,0.254094,3.639017,-9.173562,-8.605517,10.71653,-13.00906
5.470968,0.165954,3.895505,-8.898069,-8.801549,15.367582,-13.985031
5.50436,0.418851,4.491832,-9.430798,3.215528,21.826621,-12.046557
5.53756,-0.531981,4.619627,-10.256228,0.753003,25.122208,-0.490081
5.571045,0.565052,2.94213,-9.334278,4.222176,26.926453,8.96885
5.604352,1.926952,5.236755,-11.200775,-10.268649,3.596219,-44.12746
5.637655,3.460493,7.989437,-13.049613,9.21621,4.001752,-12.55205
5.670055,2.339518,7.698531,-10.920793,-0.830069,6.296526,-12.586917
5.704329,11.250007,9.871646,-36.840896,1.421309,2.093505,-10.246651
5.737746,19.157889,9.437532,-24.322216,1.493886,3.415002,-9.040978
5.770994,8.634248,-4.423146,-7.078111,-1.25311,3.269549,-8.929344
5.804345,8.511691,-2.957244,0.173287,-1.922014,3.900144,-9.335775
5.837657,4.98311,-0.510582,-5.718904,-1.131899,3.534417,-9.074947
5.870992,0.222369,5.002115,-11.247762,-1.233208,3.120355,-8.959123
5.904323,-2.616806,6.574713,-8.698445,-0.900102,3.39884,-9.018831
5.937653,2.559942,7.207702,-8.240239,-0.931976,3.867821,-9.111011
5.971021,10.501044,9.04831,-8.447344,-1.034631,3.685107,-9.218454
6.004303,7.511477,12.624627,-10.017249,-1.117085,3.542497,-9.159046
6.037457,1.239792,15.057073,-13.112314,-0.946192,4.150796,-9.31243
6.071044,-1.944909,21.918651,-8.443753,-1.103317,4.05697,-9.361064
6.104317,-3.681216,27.56468,-5.063468,-1.50047,3.400786,-9.978042
6.137505,-8.34843,24.359627,1.845546,-1.852131,3.859142,-10.436249
6.171038,-15.900012,7.438302,25.65778,-2.82915,3.422633,-12.274313
6.204317,5.100281,22.832521,-34.854386,-1.510496,6.857837,-17.453755
6.237679,-3.356042,2.43918,-7.82872,-4.909785,-1.677946,-20.671677
6.271027,-5.940526,3.456902,0.152486,-1.662533,23.796072,-30.145871
6.304305,0.124204,4.879408,-8.422354,-26.00121,-3.871562,-18.819546
6.337578,1.765188,3.136367,-8.531444,-1.519474,-9.41329,-8.660735
6.371018,1.418465,3.899246,-8.904952,-3.133224,-2.453396,-6.274678
6.404328,1.059622,3.945935,-9.336523,-1.176194,2.434092,-7.785623
6.437753,0.533926,3.231988,-9.179248,-1.933237,4.118473,-7.657828
6.470999,0.878853,3.827268,-9.214115,-2.555453,6.771643,-9.670376
6.504322,0.629847,3.552374,-9.297616,-3.580806,9.644338,-11.938514
6.537403,0.893069,3.519303,-9.032897,-6.254028,14.591983,-13.616012
6.571054,0.8172,3.711145,-9.317668,-2.970712,18.400396,-11.650601
6.604326,0.581961,3.466329,-8.952838,-4.088694,19.713812,-6.017891
6.637655,0.337445,4.838256,-9.393387,3.341078,21.788761,-1.024605
6.671015,0.078114,2.565329,-9.039332,0.126299,20.485072,-0.863889
6.704355,0.546346,0.266664,-8.119028,2.521035,6.092413,4.35042
6.737656,6.298172,6.812944,-12.259199,-26.263834,13.985031,-16.712723
6.770992,4.64357,7.314547,-12.152354,4.441852,5.419918,-19.054036
6.804347,0.806127,3.460493,-17.483085,-12.103421,10.716231,-10.328057
6.837655,10.668794,5.997989,-20.262702,-2.130616,3.069775,-10.616868
6.871015,19.761399,-5.755268,-7.294794,-0.118368,3.7089,-9.962479
6.904355,11.175186,-3.431013,-3.884282,-1.05633,3.009619,-9.26634
6.937655,-0.13423,1.771623,-10.079949,-1.442109,3.387318,-8.843449
6.971072,-1.876672,2.563084,-10.61597,-1.17335,3.42009,-8.977529
7.004409,0.979413,3.891465,-9.745347,-0.9429,3.131428,-9.122234
7.037728,4.929837,4.686518,-8.727775,-1.317157,3.453909,-9.163386
7.070985,6.343215,5.760805,-8.778504,-0.939907,3.535913,-9.39638
7.104352,2.351938,7.334899,-11.067892,-1.209564,3.525139,-9.160243
7.137655,-0.618624,7.780086,-11.81895,-1.125315,3.492217,-9.04831
7.170945,3.240668,9.122084,-11.669756,-0.954722,3.834002,-9.327843
7.204369,5.289878,10.469619,-7.208899,-0.349566,4.597031,-9.620844
7.237683,-2.322159,20.870702,-9.801613,-1.200735,3.760527,-9.581788
7.270961,-6.798728,22.587705,-1.070695,-1.552695,4.326776,-9.753727
7.304362,-9.122384,24.915251,-0.306319,-0.829471,3.180212,-10.758879
7.337653,-2.90038,-11.654193,-23.899325,-1.594745,4.708665,-14.153529
7.370989,20.681703,20.555254,32.017605,-2.668134,6.208686,-16.884962
7.404322,-9.592113,8.60851,-12.891141,-1.867694,-0.572684,-18.019555
7.437671,0.992432,0.764975,-16.9948,-22.523059,9.843663,-20.144784
7.47099,0.340587,2.77887,-6.047221,-13.8303,-6.682306,-8.19774
7.50436,0.244367,4.920559,-9.517291,-5.603979,0.589444,-7.364528
7.537638,0.731904,3.629141,-9.842466,-4.100067,1.237547,-5.338512
7.570987,-0.33939,3.617618,-9.267837,-4.754007,1.082367,-4.724976
7.604315,0.128543,3.97302,-9.571313,-0.994527,4.988348,-7.723222
7.63764,0.180469,3.702466,-8.96481,-1.138334,7.084696,-8.766682
7.670767,0.328167,3.627046,-9.045318,-2.56907,7.684315,-9.617103
7.704325,0.271003,3.930222,-9.278461,-7.611888,12.251418,-11.603613
7.737719,-0.025439,3.74272,-9.189424,-3.42817,13.176061,-12.553248
7.770992,0.148147,3.61253,-9.498137,-3.46618,19.528704,-14.049677
7.804323,0.060456,4.531488,-9.099039,0.723673,19.068402,-3.186796
7.83765,0.136025,3.956111,-8.685726,4.816707,20.24265,0.13842
7.871016,1.007546,3.996365,-9.209476,7.149641,23.01748,7.080805
7.90432,1.946256,2.029458,-9.873442,-11.946745,6.37479,-21.81435
7.937767,5.15071,9.149918,-12.153402,-3.503441,6.391849,-12.372628
7.970989,3.059001,8.119776,-11.674843,3.872759,11.502754,-12.797614
8.004364,4.045298,6.492559,-18.646708,2.262601,3.360681,-9.456686
8.037459,11.962008,7.226557,-16.219051,-0.134529,4.27485,-7.946938
8.070482,16.410145,-2.451451,-8.753514,-3.458099,3.77175,-9.051004
8.103792,1.865898,0.627453,-11.158725,0.006135,3.740475,-9.220849
8.137128,-1.083415,2.936294,-10.411258,-1.656697,3.779831,-9.013893
8.170467,4.178181,2.544828,-8.192652,-1.199688,3.660566,-8.878166
8.203788,6.169479,5.222688,-6.638161,-1.376416,3.779831,-8.990399
8.237151,6.847063,7.948285,-9.76076,-1.012933,3.72566,-8.959123
8.270971,6.21108,9.430648,-8.962415,-1.205973,3.575269,-9.012097
8.304349,6.831051,11.607354,-9.695217,-1.068451,3.749753,-9.085272
8.337651,5.9305,11.493775,-8.217493,-1.219889,3.764867,-9.049807
8.371026,4.026742,15.074282,-8.62093,-1.075634,3.884132,-9.076294
8.404352,0.375753,10.654428,-2.304052,-1.488648,3.986039,-8.973788
8.437656,0.05028,14.979708,-5.41483,-1.714459,3.949826,-9.131961
8.47111,-0.822887,15.797806,-4.726622,-1.260891,4.326327,-9.263796
8.504352,-3.003484,15.382397,2.500833,-1.157937,3.870964,-9.590317
8.537676,1.695006,14.203061,-1.481166,-1.287528,3.974966,-9.554702
8.571006,-0.633289,1.245329,-34.668979,-2.16264,4.828529,-11.58416
8.604361,-0.886784,2.177903,-8.592947,-3.585146,6.478043,-14.867775
8.637676,-4.236841,2.686839,-24.851653,-3.603552,1.573496,-14.41301
8.670589,-1.382252,6.009361,0.581812,5.084568,4.642822,-18.971134
8.704337,0.899055,1.524413,-9.346399,-28.856248,11.268264,-22.420404
8.737688,0.846231,4.113086,-9.634312,-2.458334,-4.672601,-8.032833
8.77105,0.541259,3.769805,-9.427655,5.322051,-1.167664,-8.269868
8.804344,-0.085895,3.379836,-9.234017,-4.435118,2.532258,-7.901896
8.837687,0.271003,3.504039,-9.193913,-3.747059,2.904869,-5.999485
8.870994,0.249754,3.587241,-9.244492,-3.799434,5.834578,-7.70317
8.904358,0.322331,3.495809,-9.083477,-1.191307,7.139914,-8.993541
8.937668,0.203215,3.568835,-9.21606,-3.784171,9.278761,-10.459892
8.970989,0.324875,3.6462,-9.170419,-6.825514,13.215866,-11.075523
9.004349,0.16341,3.806019,-9.330986,-4.325579,18.13897,-11.098269
9.037663,-0.23449,3.416348,-9.038883,-2.540488,21.13976,-4.966051
9.07099,0.124054,3.828016,-9.08617,3.050023,23.256609,2.64045
9.104321,1.07728,4.262579,-8.835668,10.890714,28.993471,14.956813
9.137703,0.147398,0.125102,-8.559427,-26.982269,14.803279,-21.695983
9.170289,2.764953,4.616485,-9.803409,-4.79022,0.811514,-11.291757
9.203478,2.629077,7.363929,-10.585143,9.864912,9.416731,-9.834086
9.237648,0.592137,5.109409,-12.699299,1.431784,3.40737,-8.267773
9.27099,1.746932,7.839944,-17.279421,-0.867031,4.257791,-7.890074
9.304343,14.096815,1.864252,-7.123902,-2.671875,3.98589,-9.864164
9.337587,16.021672,-3.560604,-10.07127,-1.183975,3.149984,-8.393772
9.370989,-1.011886,0.390568,-7.504743,-0.688657,3.775492,-9.543329
9.40431,-0.394309,2.046667,-11.858755,-1.536833,3.374149,-8.597586
9.437656,0.283573,3.769955,-10.593374,-0.789815,3.399738,-8.994289
9.470998,6.632475,3.95207,-6.090169,-0.929432,3.647696,-9.239704
9.504326,6.138354,5.334172,-9.041576,-0.780687,3.47456,-9.073002
9.537691,1.694407,7.376649,-10.621507,-0.810765,3.493714,-9.181493
9.571014,-0.369917,8.560923,-11.287119,-0.883642,3.439543,-9.085871
9.604328,0.829172,7.151436,-7.644809,-0.843537,3.363225,-9.158597
9.637682,2.781264,9.0106,-9.24539,-0.974774,3.625849,-9.113854
9.671035,2.400722,11.979367,-10.823525,-1.235303,3.634229,-8.941914
9.704322,-2.482277,11.08974,-2.587177,-0.500855,4.097673,-9.446211
9.737719,-6.020285,17.351698,-0.916713,-1.139232,3.794047,-9.514598
9.770992,-3.638868,20.69562,5.524967,-1.115887,4.046495,-9.705842
9.80432,-8.250414,-3.196373,-26.217145,-1.709371,1.720146,-11.447685
9.837638,7.792956,12.448797,-7.222517,-2.49769,4.181772,-12.944863
9.870993,-5.905958,6.757427,-6.731239,-3.73404,6.014449,-14.422886
9.904321,-1.080422,3.642908,-15.80873,-1.405895,0.951879,-17.264905
9.937649,-0.085895,4.26662,-7.176576,-1.347086,18.504548,-25.555574
9.970987,0.720381,4.296698,-11.455916,-25.151986,5.471694,-14.737436
10.004332,0.089038,3.398092,-7.502948,-3.299477,-0.527342,-5.599938
10.037694,0.04205,3.721171,-9.540486,2.13331,-5.033241,-3.944887
10.070899,-0.235987,3.892363,-9.319015,-2.132562,2.688635,-7.066439
10.104094,-0.06704,3.656226,-9.081382,-3.347812,3.950125,-7.664113
10.137652,-0.122857,3.689148,-9.038135,0.842939,6.803217,-8.970945
10.170991,-0.063598,3.803325,-9.12403,-1.256402,7.934518,-9.935244
10.204314,-0.137821,3.766812,-9.112058,-3.75529,9.026313,-11.302681
10.237659,-0.122109,3.838791,-9.155604,-4.893923,15.36863,-12.715161
10.271078,-0.288063,3.775342,-9.172813,-2.676214,18.207057,-10.982146
10.304299,-0.082902,3.907776,-9.180445,1.033135,22.267469,-5.255011
10.337654,-0.337594,3.7508,-8.694854,7.441444,20.696068,2.029158
10.371052,0.009128,3.98978,-9.078838,9.298364,17.391054,8.655348
10.404302,-0.256787,4.435716,-10.541597,-17.888767,11.099915,-20.323009
10.437653,2.529864,4.89093,-11.4836,-3.65892,2.957543,-11.134483
10.470986,1.89448,6.933407,-11.938664,1.084462,16.474641,-13.456642
10.504413,-2.368399,5.482469,-7.577769,2.921928,0.962204,-9.83633
10.53773,7.467482,9.079586,-37.631011,-1.892235,3.829962,-9.910703
10.571137,23.18074,3.277629,-17.738974,-0.387426,3.624651,-9.544676
10.604284,9.219203,-1.868591,-7.279381,-0.851917,3.50778,-9.064771
10.637722,4.937768,-2.556799,-4.205266,-1.192654,3.201312,-9.039332
10.671076,2.210825,1.597887,-8.588907,-0.955021,3.480396,-9.119092
10.704539,0.214738,3.88503,-11.907688,-1.079524,3.371905,-9.093203
10.737734,-3.639316,4.520564,-9.678906,-1.054085,3.39884,-9.016736
10.771051,1.237547,6.389006,-9.099638,-1.02251,3.395249,-9.090959
10.804447,4.178031,5.225981,-6.529371,-1.044208,3.285411,-9.088415
10.837745,3.980652,9.566075,-13.17262,-0.830219,3.373401,-9.214414
10.871084,0.076617,11.47492,-10.112272,-0.991534,3.463187,-9.133008
10.904385,0.44444,14.427376,-12.733717,-0.852815,3.398391,-9.201096
10.937744,0.913869,12.679397,-5.406899,-1.146265,3.516609,-9.096944
10.971028,-1.10227,13.818778,-3.835648,-1.181581,3.539355,-9.254219
11.004324,-4.317947,16.547218,-1.952392,-1.335713,4.059065,-9.642692
11.037655,-5.524818,19.796415,-0.356599,0.338343,4.298643,-10.941593
11.070993,-3.342575,2.924023,2.72425,-2.493201,0.851319,-11.773757
11.104319,2.646585,18.581165,-40.781893,-4.905445,3.436401,-12.133798
11.137669,-0.237034,3.238573,-2.453097,-2.260057,6.535207,-15.865145
11.170992,-5.587069,6.503183,-16.890798,-1.478173,2.410149,-15.559874
11.20431,1.41652,4.157979,-10.435351,-1.503762,19.06915,-26.438766
11.237655,1.449292,2.886014,-9.087667,-17.340924,7.323376,-17.766508
11.271023,0.544551,4.10291,-9.633414,-4.132989,-4.735601,-6.536254
11.304333,0.844585,4.150497,-9.765699,2.585082,-2.87494,-5.987663
11.337671,0.04624,3.380285,-9.369893,-4.838405,1.75172,-6.012953
11.370988,0.46958,3.965987,-9.317967,-2.18793,2.887361,-6.99895
11.40432,0.407627,3.860788,-9.288038,-0.942152,5.38565,-7.74507
11.437646,0.30183,3.431612,-9.069859,-0.167151,7.684764,-8.628562
11.471054,0.563256,3.856598,-9.212169,-1.217046,8.576935,-9.556797
11.504325,0.610394,3.711444,-9.010451,-1.277203,11.673197,-12.876626
11.537604,0.076468,3.650839,-9.048759,1.082068,14.431117,-10.647694
11.57099,0.17164,3.68376,-9.11535,1.249369,18.88479,-11.907837
11.604352,0.414361,3.776539,-9.06941,0.865984,18.518764,-4.732458
11.637654,0.051328,4.383341,-9.108018,3.798088,18.748166,0.564004
11.671014,0.786074,4.808926,-8.739597,7.99662,22.088646,6.218862
11.704373,-0.031275,-2.16668,-9.203191,-10.926928,-2.424365,-25.948536
11.737768,3.287506,5.141732,-12.085763,-2.943926,5.85927,-14.554722
11.771019,2.937341,8.13893,-11.826132,7.001644,0.815554,-10.152077
11.804346,0.225063,5.207275,-17.888019,-5.542176,6.891507,-8.504658
11.837674,-4.550941,14.360186,-31.55446,0.375753,3.501046,-9.615308
11.871063,16.854734,3.74242,-8.37806,-0.978815,2.935546,-9.373335
11.904347,11.79351,-2.523728,-6.261659,-1.162875,3.439992,-9.135552
11.93766,5.404654,-0.350763,-5.595299,-2.050857,3.360382,-9.114453
11.97098,3.473512,1.578434,-8.771471,-1.191607,3.187844,-9.11565
12.004347,2.05789,2.390097,-7.575674,-1.333319,3.274188,-8.81367
12.037553,4.807579,2.619949,-5.971203,-1.236051,3.405574,-9.02317
12.070966,5.656803,5.858821,-7.824979,-1.557334,3.793598,-9.186431
12.104342,4.04874,6.989373,-6.556157,-1.277053,3.679421,-9.108317
12.13766,4.052032,9.051303,-10.452859,-1.193851,3.596219,-8.984413
12.17099,2.957094,11.606008,-11.029882,-1.420112,3.467377,-8.925005
12.203564,5.144575,16.16084,-12.583625,-1.541771,3.564944,-8.842551
12.237658,1.456924,12.144573,-8.190557,-0.940955,3.806318,-9.226984
12.27099,-3.272841,18.942852,-1.429539,-1.502565,4.098421,-9.243744
12.304329,-6.341569,24.483831,3.479797,1.497477,5.275213,-11.925795
12.337578,-3.189789,15.983214,14.231942,-1.497178,3.116763,-10.777435
12.370991,8.145365,12.236154,-6.352792,-3.631086,1.952392,-13.3486
12.404359,0.086194,9.474045,-9.296418,0.824832,6.872502,-15.320744
12.437679,-2.52298,2.623091,-10.665651,-1.570652,-0.447283,-16.712124
12.471024,0.228355,1.993244,-9.134355,-1.130702,23.766442,-25.040054
12.504315,1.110351,1.679892,-9.263647,-12.221938,2.490208,-15.4023
12.537677,1.824447,4.125955,-9.809694,-1.644875,-0.195134,-10.540999
12.570995,0.475266,3.031018,-9.789043,-2.404014,-2.435888,-5.909101
12.6043,0.467933,3.181259,-9.916688,-1.169909,0.692697,-6.357281
12.63768,0.520009,3.646649,-9.701352,-2.272029,2.945572,-6.632624
12.670995,0.586151,3.463935,-9.422717,-2.415686,3.695283,-6.834044
12.704323,0.380841,3.378489,-9.218305,-1.036427,6.790049,-7.892618
12.737657,0.382338,3.511072,-9.341012,-3.534267,6.870706,-8.716552
12.771071,0.33116,3.716682,-9.503225,-6.630529,9.275468,-10.118856
12.804321,0.304074,3.58754,-9.12792,-3.016353,16.017482,-12.440566
12.837655,0.377699,3.695133,-8.717899,0.402988,18.342634,-10.102994
12.87098,-0.07527,4.25824,-11.16501,-1.437919,18.647905,-5.582131
12.904315,-0.845034,4.37107,-8.594144,4.780194,24.502536,8.615543
12.937658,0.706614,3.00094,-9.009703,2.276817,7.20875,-30.997938
12.971021,0.974475,3.344819,-11.063103,1.182479,6.453502,-5.068257
13.004321,1.426546,8.323739,-12.108958,-0.663966,12.679845,-13.370597
13.037701,1.166766,2.802363,-12.792826,0.834409,3.39465,-10.581552
13.070252,2.652272,6.853048,-39.516812,-0.161315,2.770938,-12.073792
13.104267,20.027464,4.988946,-12.126466,0.171042,3.008721,-9.014341
13.137648,12.268028,-3.817841,-7.335348,-2.935845,3.075163,-9.281604
13.17107,-1.048548,-0.124653,-7.785025,0.112232,3.250993,-9.37977
13.204324,-1.85677,3.494312,-9.770787,-0.904592,3.455705,-9.318117
13.237663,-0.731155,3.916605,-8.383148,-0.989738,3.317883,-8.907197
13.271372,6.930264,2.232373,-2.379772,-0.664415,3.489225,-9.240602
13.304356,6.622898,4.787527,-7.6487,-0.681773,3.525588,-9.235214
13.337734,2.194514,6.359825,-7.712897,-0.953974,3.464833,-9.195858
13.371151,-0.390269,9.354181,-10.885028,-0.74163,3.785368,-9.27487
13.404318,0.496066,9.745347,-10.828313,-1.24892,3.754542,-9.154557
13.437655,8.005,16.025862,-12.797016,-1.769079,2.494847,-9.655561
13.470982,5.760505,15.48176,-1.624673,-1.422655,3.400337,-9.593609
13.504381,-1.324939,22.989047,-5.522872,-1.455427,2.973854,-10.300672
13.537681,-0.350913,25.010125,18.398002,-1.361751,3.528581,-10.723862
13.571056,-11.996725,-2.800867,-59.502525,0.112681,6.240859,-14.725465
13.604346,16.201243,-0.592736,-14.177771,-0.086943,4.429132,-16.945717
13.637695,-2.911004,1.429389,-10.189488,2.09126,0.141413,-19.509699
13.670976,0.983453,2.344606,-9.820468,-26.817512,8.040316,-22.353214
13.70436,-0.109988,2.454893,-8.741692,-2.277117,-3.462139,-8.957926
13.737658,1.040018,2.294775,-9.499933,-2.226088,2.492752,-7.222517
13.770981,0.654538,3.60026,-10.308753,-1.3619,0.565351,-5.921521
13.804324,0.671448,3.656675,-9.888705,1.348283,2.72829,-6.365512
13.837658,0.485591,3.369959,-9.096944,1.098978,5.047157,-6.569774
13.870977,0.590641,3.57931,-9.168923,1.766385,6.988775,-7.489779
13.904345,0.455663,3.526336,-9.51385,-0.815554,8.652206,-8.656246
13.937398,0.265317,3.531125,-9.314376,-3.107785,9.365105,-10.726556
13.970991,0.436658,3.594723,-9.232072,-2.253922,10.84238,-10.016351
14.004004,0.474218,3.776539,-9.338767,-2.887361,14.80268,-10.745112
14.037069,0.309013,3.611034,-8.988453,-3.492666,15.541019,-8.249367
14.070992,0.643165,3.64635,-8.483408,-1.548655,16.734271,-5.675358
14.104412,-0.212493,5.097138,-12.897277,3.076509,16.412689,1.850036
14.13768,-0.18855,3.154922,-8.831777,4.294154,17.499994,6.794239
14.171055,2.757171,-0.582111,-9.770038,-25.130288,12.291672,-17.420384
14.20433,3.249646,5.183332,-11.98206,4.373914,8.108403,-15.385989
14.237718,0.472273,2.900679,-12.235107,2.048911,5.289429,-9.984626
14.270949,6.245648,3.50374,-40.693903,-2.166082,2.274423,-8.736455
14.304301,12.65261,3.453909,-14.584052,-2.225789,3.852558,-9.989265
14.337677,11.494075,-1.303839,-8.379257,-2.105327,2.654816,-9.494546
14.370222,4.069839,-1.72688,-7.80807,-0.510282,3.4367,-9.168025
14.404321,-1.488798,2.032451,-8.66702,-1.384497,3.624053,-8.986957
14.437655,0.925093,2.48123,-8.482959,-1.030741,3.690943,-8.970346
14.470989,4.717195,2.157402,-5.78804,-1.042113,3.690943,-9.133906
14.504321,6.259864,4.183718,-7.783977,-1.438218,3.648894,-8.916625
14.53771,5.505514,6.69293,-9.074648,-1.091496,3.648295,-9.040529
14.570995,3.870365,8.307129,-8.375815,-1.211659,3.774444,-9.0528
14.604321,1.628265,8.242782,-9.296119,-1.383748,3.601457,-8.967354
14.637745,2.017337,10.606542,-10.89236,-1.97394,3.631236,-8.818309
14.670998,6.134164,9.101284,-8.686324,-1.996835,3.737183,-9.062377
14.704321,3.679271,11.4625,-7.823184,-1.347834,3.363824,-9.148571
14.737671,-0.009278,19.039521,-9.419874,-0.685365,4.04425,-9.573557
14.770996,-2.742057,17.710841,-1.926204,-1.095386,3.516909,-9.824957
14.80432,1.069348,18.653442,5.076787,-2.080336,3.715485,-9.827651
14.837656,-13.725999,-3.644554,-42.198862,-2.432147,4.742784,-12.357814
14.870129,7.621465,7.453566,-4.856811,-2.922676,7.114924,-14.613382
14.904324,-4.549295,4.450082,-6.39574,-2.984479,2.998545,-14.779935
14.937661,0.190196,2.024669,-9.708086,4.833467,0.190047,-20.53191
14.970847,0.625508,2.340116,-9.541085,-27.583834,12.279102,-25.280829
15.004006,1.949399,2.765851,-10.662808,-5.962673,-7.039952,-4.603765
15.037195,1.385394,2.789943,-9.278012,2.450403,-0.652294,-6.329448
15.07099,0.665462,3.847619,-10.271941,-1.783594,0.247061,-6.321217
15.103621,0.799243,3.580656,-9.591514,-0.212044,2.49784,-7.127793
15.136776,0.924344,3.702915,-9.45923,0.043546,4.802641,-7.322179
15.171009,0.758839,3.327461,-9.10712,0.529736,5.985119,-8.453779
15.204326,0.617427,3.446876,-9.212169,-2.056693,8.537878,-8.873976
15.237654,0.562807,3.609089,-8.992344,-4.4845,9.167875,-10.463484
15.27105,0.535572,3.696181,-9.254668,-3.316986,13.566929,-11.004293
15.304331,0.815255,3.713689,-9.182091,-4.317349,18.439004,-10.078153
15.337581,0.560562,3.798537,-9.218903,-3.665354,23.974745,-4.985953
15.371101,0.42349,3.464982,-7.626553,1.626619,22.068594,4.218884
15.404327,0.851019,6.299369,-7.744322,5.942172,11.595233,-4.733955
15.437656,0.619223,-0.500406,-9.382164,-23.680248,9.430349,-5.799712
15.470988,3.402731,8.20612,-12.272966,3.884282,4.465196,-16.677557
15.504358,0.003591,6.507972,-11.301484,-5.51554,-2.059536,-9.121336
15.53772,10.186345,5.323548,-35.046228,-2.21726,3.431462,-9.550063
15.570986,20.857832,4.522808,-18.291755,-0.751357,3.152079,-8.94386
15.604327,9.416731,-2.29687,-4.85741,-1.996686,3.087882,-9.278611
15.637661,7.460599,-7.031423,-2.705245,-1.006199,3.076509,-9.293426
15.670998,2.328145,-0.13827,-9.368546,-1.208965,3.480246,-9.152163
15.703891,-1.763243,0.874813,-9.826753,-1.465004,3.450766,-9.079137
15.737625,-2.021377,2.542434,-9.946467,-1.256552,3.16405,-8.842102
15.770998,0.169246,7.53572,-10.105987,-0.471076,3.51646,-9.456686
15.804314,2.933002,6.710738,-9.489907,-0.750459,3.423082,-9.230276
15.837639,3.94788,7.057012,-10.207145,-1.015178,3.437747,-9.091258
15.870992,3.282717,11.786627,-14.764671,-0.769015,3.476355,-9.263048
15.904312,-0.460002,12.035932,-12.289427,-0.940207,3.503291,-9.343406
15.937634,-1.037325,13.799923,-6.276474,-0.958313,4.087048,-9.413439
15.970987,0.277588,16.704044,-1.644127,-0.942152,4.913975,-10.548182
16.004319,-2.888857,18.903047,-0.623712,0.827825,2.343259,-10.109578
16.038059,3.177967,22.841799,7.152334,-2.318269,2.755076,-11.454868
16.071025,9.721105,10.106136,-18.198827,-3.925733,5.158342,-13.222151
16.104322,4.746525,9.906363,-8.285131,-1.523515,5.683738,-14.334597
16.138043,-1.673457,1.38704,-10.005277,0.007781,0.583757,-16.476137
16.171015,0.55727,2.859826,-9.925068,-6.907369,20.947918,-25.104101
16.20432,0.730407,2.073902,-8.706975,-17.065282,4.822693,-14.584202
16.237654,2.002223,2.419278,-12.009295,-1.029693,-3.657573,-5.361557
16.270997,1.436273,3.181259,-11.237437,2.174462,1.733314,-7.733099
16.304322,1.067702,2.645089,-8.25221,-4.481956,1.258348,-5.926459
16.337699,0.735196,3.589186,-9.126873,-0.59109,3.693338,-7.268158
16.371102,0.93871,3.08474,-8.578731,-2.210675,6.081938,-7.554126
16.404411,0.753602,3.693637,-9.09859,-3.974966,7.97148,-9.089462
16.437709,0.509385,3.645153,-9.614559,-5.931397,8.400805,-10.504636
16.471018,0.510731,3.750501,-8.921114,-7.729657,10.046429,-10.914657
16.504415,0.681923,3.59173,-9.482425,-8.627963,14.6059,-11.671701
16.537747,0.521057,3.24381,-8.873527,-0.053722,15.174992,-7.304222
16.570665,0.894266,3.355893,-8.96481,-6.164691,20.587577,-2.147077
16.603885,0.549639,3.398391,-8.16422,-2.44322,18.817601,2.022125
16.637171,-1.082367,4.460856,-8.648464,-1.581576,16.266937,1.224977
16.670331,1.819808,-2.357475,-6.339773,3.350655,-5.584076,-25.078512
16.703536,0.916713,2.381418,-10.387615,-8.818608,21.220567,-19.957431
16.737745,3.1434,8.959572,-12.674907,-0.458656,-1.318205,-10.128583
16.771104,-3.046431,1.508551,-18.011175,-2.512954,1.06875,-8.379556
16.804432,0.841592,11.873719,-36.624513,-0.295246,3.481742,-9.444715
16.837755,15.772816,-3.650091,-8.523213,-0.695391,3.012163,-10.623153
16.871057,10.436548,-6.217216,-5.291824,-0.974176,3.944588,-9.705093
16.904407,2.213369,-0.294348,-7.308562,-1.339604,3.234083,-8.807535
16.937738,-3.408417,4.702979,-10.061094,-0.686263,3.418294,-9.338767
16.971044,-2.478386,4.811919,-9.432444,-0.92195,3.586343,-9.03155
17.004402,2.219504,6.429409,-7.489629,-1.03523,3.598913,-9.370791
17.037723,7.664412,4.286223,-5.446255,-0.911625,3.514065,-9.00656
17.071079,7.1667,7.775448,-11.476118,-0.986895,3.502543,-9.074797
17.10439,-0.294048,10.978256,-10.562098,-1.092244,3.422484,-9.152013
17.137682,1.205973,13.952259,-13.037791,-0.849523,3.704262,-9.313478
17.17099,5.957435,12.500124,-10.081894,-0.981059,3.557911,-9.239404
17.204329,2.220552,16.901722,-7.595277,-1.396917,4.017464,-9.648977
17.237678,-2.871499,16.384257,-2.542733,-0.550087,4.359249,-9.686538
17.270995,-3.279276,19.280297,-0.173735,1.344692,3.047329,-10.443132
17.304377,0.539762,16.559937,15.926648,-2.42227,3.279575,-10.766361
17.337698,14.013912,16.024964,-13.936547,-2.803561,4.65614,-12.3427
17.370991,-5.023065,7.917459,-5.975093,-1.339005,6.729593,-14.294642
17.404142,2.064773,5.576444,-8.622277,-1.366988,2.049809,-14.156073
17.437486,-0.153234,0.173287,-8.782545,2.231027,21.874207,-24.711887
17.470806,0.240925,2.907562,-10.572424,-22.620327,12.130805,-18.650449
17.504158,1.418017,1.831181,-9.04427,-4.929538,-4.537174,-6.884473
17.537479,1.643528,2.538094,-8.777906,1.639338,1.421907,-5.990357
17.570816,1.565265,3.043588,-10.685105,-6.006967,0.625208,-5.487257
17.604072,0.647804,3.002137,-10.90508,-3.212385,4.294004,-7.627151
17.637481,1.299799,3.247252,-10.289898,-0.552182,4.175188,-7.205458
17.670812,0.784428,3.540402,-9.378123,-2.052353,6.784512,-8.823996
17.704152,0.778293,3.471417,-9.114902,-5.179591,7.307215,-9.617103
17.737475,0.537667,3.80542,-9.204388,-7.509233,10.380282,-12.986763
17.770812,0.408226,3.416348,-9.483472,-7.527639,13.427312,-12.427547
17.804144,0.49861,4.078967,-9.354031,-0.389521,22.573788,-10.955959
17.837476,-0.00419,4.11967,-8.450936,3.555067,21.463288,-6.206142
17.870806,0.529886,6.414146,-12.696605,2.504873,25.982954,6.446618
17.904134,1.801252,-0.119714,-6.357281,11.724974,8.79691,4.372118
17.937472,2.159946,4.31256,-14.355846,-30.252566,20.038238,-16.608571
17.970815,0.64556,8.825941,-12.327436,1.56347,2.616507,-11.280684
18.004101,0.095622,2.241651,-14.363329,2.281007,3.343921,-10.152675
18.037469,11.984455,12.807491,-36.022649,-0.450276,2.813587,-8.393024
18.070806,21.766165,5.069454,-17.373845,-0.447881,4.248812,-11.295199
18.10408,10.233034,-10.642756,-1.553593,-1.305186,4.662874,-8.525757
18.13766,5.630765,-1.496878,-9.012995,-1.936978,2.265145,-8.97304
18.170981,0.065095,3.603103,-11.031828,-0.761533,3.311449,-8.85991
18.204346,-2.617704,5.954442,-7.688206,-1.161229,3.543695,-9.043223
18.237663,0.693445,5.472443,-8.066653,-1.12726,3.325216,-8.813371
18.271012,4.868334,5.86316,-7.283122,-0.999615,3.525887,-8.881459
18.304308,6.722111,6.933257,-8.79706,0.113429,3.603402,-9.576101
18.337645,5.432787,8.357559,-9.666485,-0.835606,3.338384,-9.22863
18.371027,4.417011,13.251781,-13.758023,-0.811663,3.600709,-9.310635
18.404313,6.210482,22.305029,-11.743978,-0.753303,4.196437,-9.351637
18.437653,0.549788,21.447426,-3.674034,-0.492026,4.902303,-9.602438
18.47109,-5.763049,25.29714,2.025118,-0.188999,3.010966,-9.711827
18.504311,-7.470326,6.897792,-17.314138,-2.8498,2.241352,-12.015131
18.537655,14.213835,7.575824,15.713856,-2.769442,3.356192,-13.728244
18.570973,-9.963826,4.614091,-10.961944,-0.336547,4.195839,-15.262982
18.604398,-1.460665,2.541685,-10.060795,2.678309,3.641711,-15.760545
18.637657,0.370516,2.482277,-8.793319,-14.143503,5.147867,-16.246735
18.670998,1.446299,1.948501,-8.306231,-21.40373,0.496665,-13.335282
18.704299,2.285646,3.877249,-10.135616,-1.800205,-0.579567,-5.886654
18.737689,0.662619,2.792786,-9.981185,1.08132,-3.843579,-5.485162
18.771033,0.673244,3.184851,-9.403114,-1.803946,1.96122,-8.273908
18.804551,0.563705,3.140108,-9.480779,-0.878404,2.659006,-7.155477
18.837682,0.590341,3.17692,-9.33353,-0.315298,5.953694,-8.666122
18.870988,0.279832,3.546987,-9.692374,-3.29424,7.230598,-8.944608
18.904513,0.424986,3.820085,-9.669778,-4.950338,9.028558,-10.90074
18.937715,0.263222,3.319081,-8.831627,-6.350248,14.772752,-11.603464
18.97099,0.312155,3.537859,-9.332782,0.208303,13.934602,-9.610519
19.004412,0.544102,3.578561,-9.010451,2.737568,20.742308,-6.126682
19.03765,0.53243,3.891016,-8.111845,5.185278,25.542106,2.867458
19.070988,-1.582025,3.835199,-7.723222,9.30435,20.601793,20.398129
19.104323,1.377164,-2.941531,-6.964981,-21.483789,48.019224,-35.431559
19.137703,2.065671,3.489524,-12.922566,5.982126,-0.59079,-16.172512
19.17106,5.208173,8.274357,-13.111416,5.982126,2.937341,-9.201395
19.204315,-2.266043,1.825794,-15.188759,-0.883941,2.632219,-7.048781
19.237653,4.210953,11.838254,-38.533059,-2.328594,4.730214,-8.804243
19.270988,20.471005,0.992731,-9.064771,-1.515434,4.20347,-8.836416
19.30431,10.344368,-7.709156,-5.315168,-1.532044,3.006476,-7.889924
19.337682,10.51945,-6.699664,-0.538415,0.176279,3.602055,-9.118044
19.371019,5.079031,4.940312,-11.029733,-2.029458,3.777736,-9.305247
19.404323,-0.675039,5.186176,-9.284148,-0.148595,3.189639,-9.209027
19.437654,-0.422292,8.96047,-8.242034,-1.093142,3.472914,-9.185683
19.470999,4.130145,7.911772,-8.325834,-0.742229,3.506733,-9.205735
19.504311,8.269868,9.07779,-9.091707,-0.773804,3.41979,-9.065819
19.537674,6.861877,13.559746,-10.314739,-0.755697,3.560754,-9.171616
19.570998,3.884282,15.031634,-10.538305,-1.218393,3.768458,-9.273972
19.604325,1.323143,18.761933,-8.372673,-0.998867,4.307622,-9.245689
19.637643,-0.706614,19.452087,-1.586365,-1.342297,2.93779,-10.183053
19.670999,-0.347022,19.348683,0.258882,-1.682286,1.221835,-9.863864
19.704323,8.072788,23.991057,17.471862,-2.1583,2.451002,-11.111288
19.737706,0.602911,18.862793,-35.229541,1.002458,6.668988,-14.47601
19.77099,8.062612,-4.694,-3.776389,-1.466202,7.465537,-15.531142
19.803507,0.553829,6.833595,-15.022206,0.438903,-0.104451,-18.456811
19.837657,0.422143,-0.634037,-8.52037,-2.740411,12.41797,-15.810376
19.871024,1.230514,2.505771,-7.1878,-18.450526,11.857857,-22.572441
19.904348,1.005601,1.539078,-10.50718,0.455962,-0.859399,-4.169501
19.937652,0.426931,3.778035,-8.209562,-2.676663,0.847727,-4.458013
19.97101,0.838749,3.529778,-10.613875,-3.974666,0.147698,-4.335904
20.004305,0.738937,3.911517,-10.28885,-0.860746,4.703427,-6.73513
20.037662,0.73355,3.617618,-9.37977,1.279896,7.900549,-6.804863
20.071046,0.651994,3.680618,-9.210523,-2.039035,7.94185,-7.599168
20.10434,0.622515,3.672537,-9.35867,-2.65287,9.539439,-11.522806
20.137654,0.721279,3.723416,-9.251675,-3.814848,11.654791,-12.417671
20.170969,0.600068,2.894095,-8.513935,-2.198853,14.059104,-12.073492
20.204376,0.477062,3.701418,-8.722987,-4.129247,15.248167,-10.707402
20.237677,-0.59947,6.518896,-14.263666,1.315661,21.881091,-4.291311
20.270995,0.045791,2.653319,-8.91857,3.276283,22.207911,3.986189
20.303386,0.909829,-1.23231,-8.835069,8.049444,19.441312,9.314825
20.337696,1.93189,6.279018,-10.856147,-20.33064,14.047732,-8.432081
20.370997,4.270361,9.108916,-13.610924,4.222176,4.850227,-14.176574
20.404361,-0.093377,3.36547,-17.130676,0.784428,8.094786,-11.646411
20.437653,4.501559,13.578302,-37.307034,-1.895078,2.787998,-9.995101
20.470653,23.955741,-1.864551,-11.958716,-1.368185,2.649728,-9.892147
20.504325,8.506304,-5.401362,-1.701889,-1.193851,3.209841,-9.58089
20.537654,6.182349,-1.093291,-5.16762,-1.088054,3.23139,-9.413738
20.571049,3.290349,4.839603,-11.142414,-1.18592,3.480396,-9.447558
20.604309,0.51986,4.361493,-8.391976,-1.061118,2.928812,-8.926052
20.637655,3.380135,8.014427,-7.190643,-0.826029,3.299328,-9.21621
20.670992,6.298472,6.558701,-5.807044,-1.238146,3.308456,-9.114752
20.704377,6.688591,6.668988,-7.909079,-0.968788,3.223309,-9.158897
20.737685,7.871818,12.174801,-10.300822,-1.013232,3.525289,-8.978278
20.77042,9.743402,9.146476,-7.741778,-1.141925,3.445379,-9.085871
20.804303,7.628199,17.585889,-9.317668,-0.975822,3.969578,-9.768392
20.837637,1.924259,16.946465,-4.305078,-1.572747,3.920645,-9.418377
20.870995,-1.750972,18.789019,-4.318995,-1.712664,3.835798,-9.440674
20.904322,-4.505001,17.099999,0.982256,-1.852131,3.300974,-9.765699
20.937662,1.860062,16.791285,8.167662,-1.482363,3.128735,-10.466776
20.971011,20.425963,3.092222,-41.29457,0.005537,5.93888,-13.748446
21.004324,-8.091793,2.493201,-12.617295,-0.847877,6.244301,-15.236196
21.037693,4.680981,4.121167,-10.995913,-0.800739,0.782184,-15.709666
21.071019,-0.250951,1.005002,-7.610092,-1.769528,16.096493,-24.184844
21.104323,-0.011971,1.996985,-9.745198,-23.701348,17.674029,-20.521884
21.137677,1.310274,1.855722,-9.037237,-4.758646,-5.0922,-5.772327
21.170971,2.16249,3.942792,-10.505533,-1.005601,-0.095323,-4.042604
21.204348,0.525696,2.675317,-9.05699,-3.403928,2.136303,-5.84221
21.237724,1.100325,2.402817,-9.105923,-3.863332,4.158577,-6.218413
21.270987,0.955919,3.355593,-9.211571,0.348967,6.843621,-7.025587
21.304323,0.584206,3.174825,-9.163984,-2.478386,9.37947,-8.630507
21.337522,0.715593,3.442087,-9.798171,-4.737696,9.852791,-9.334128
21.370969,0.312305,3.584846,-9.324551,-5.829191,11.212896,-10.208791
21.404321,0.672196,3.569284,-9.704944,-6.29503,10.617466,-14.864184
21.43765,0.776797,3.581105,-8.834321,-2.07031,17.612676,-9.843812
21.471518,0.475266,3.448222,-8.634847,5.453438,18.974426,-2.137649
21.50433,-0.249754,6.526527,-12.127064,6.003226,27.340515,10.00423
21.537655,0.565351,3.527533,-8.831478,-6.214073,-4.468937,-24.066925
21.571163,2.225939,-2.904719,-10.446574,-27.310436,19.553993,-20.587727
21.604357,2.529864,10.609535,-12.379961,8.998928,-1.244281,-5.76709
21.637663,-0.19693,1.382402,-12.66548,3.770853,3.064239,-11.859802
21.671195,4.135383,-2.549018,-29.564508,-1.257599,5.714714,-3.138013
21.703988,12.717256,4.862648,-13.204344,-3.033711,2.943477,-11.238634
21.737656,13.766253,-6.9991,-4.345033,-0.061204,3.035058,-8.034479
21.771034,9.248832,-6.049765,-7.923444,-0.545149,4.592991,-9.723799
21.804318,-0.783381,1.741395,-8.020114,-0.194087,3.17677,-8.422055
21.837654,-0.988541,4.872374,-8.799753,-0.157724,3.77624,-8.880561
21.871046,4.100516,5.701845,-7.547841,-1.375817,4.430479,-8.980821
21.904412,10.928275,7.422141,-5.513594,-0.365877,3.721321,-8.725082
21.937654,9.989415,21.32008,-17.167338,-0.634486,3.996065,-8.756656
21.971046,4.001602,20.577701,-3.312496,-0.31425,3.998609,-9.020327
22.004329,1.061866,28.06733,4.844241,-0.731455,3.941146,-8.863352
22.037745,-3.011714,29.270909,1.272414,-0.581363,4.050685,-8.7592
22.070994,-7.082601,6.533411,-13.856488,-0.424836,4.037816,-8.97723
22.104364,1.638141,-4.912928,-2.277715,-0.744174,4.024647,-8.608959
22.137655,1.73077,5.251719,-5.692118,-0.884539,4.041108,-9.04008
22.170984,1.126961,1.554491,-11.144958,-0.691949,4.074179,-9.083028
22.204322,-0.292253,3.278976,-8.329126,-0.394309,4.015968,-8.813072
22.23771,0.580465,3.408118,-8.724333,-0.550387,4.215741,-8.734659
22.271044,0.324426,3.710547,-9.002071,-0.686113,4.208708,-8.665224
22.304428,-0.035914,3.582452,-9.1366,-0.987943,4.09483,-8.749623
22.337677,0.311257,4.030782,-9.355527,-0.867779,3.974068,-8.971544
22.370989,0.015114,3.742271,-9.033496,-0.592137,3.871113,-9.093503
22.404404,-0.040404,3.820085,-9.127322,-0.827376,3.887125,-9.046365
22.437654,0.043696,3.76337,-9.076294,-0.714994,3.879194,-8.948499
22.470986,0.087391,3.648295,-9.143184,-0.911026,3.918251,-8.98157
22.504159,0.160866,3.708302,-9.180445,-0.613835,4.09049,-9.531358
22.537656,0.074073,3.635875,-9.192267,-1.688721,3.660266,-9.186281
22.57099,0.313801,3.581405,-9.119241,-0.577472,4.783337,-8.870086
22.60432,0.053572,3.65054,-9.223542,-0.928086,4.266171,-8.350226
22.637676,0.225811,3.488776,-9.181044,-0.723973,4.780494,-7.6695
22.671025,0.158771,3.562999,-9.141538,-1.316409,4.708815,-7.851616
22.704321,0.046838,3.638868,-9.250328,-1.516781,4.879557,-7.589142
22.737653,0.186605,3.654879,-9.198253,-0.973427,4.532236,-8.270317
22.771019,0.257685,3.577215,-9.128818,-1.36205,3.636473,-8.958824
22.804321,0.068536,3.615374,-9.246587,-0.642866,3.961797,-9.530011
22.837685,0.286566,3.634678,-9.206333,-0.643764,4.08226,-9.061629
22.871014,0.151588,3.559108,-9.200797,-1.216298,3.896553,-8.677346
22.904328,0.1465,3.55821,-9.180595,-1.63889,3.863781,-8.737652
22.937639,0.265018,3.57482,-9.179248,-1.121574,3.636024,-8.631106
22.971011,0.144555,3.557462,-9.223542,-1.132049,3.835648,-8.909741
23.004103,0.118816,3.535315,-9.189723,-1.164072,3.777587,-8.969
23.037656,0.210398,3.564944,-9.222944,-1.315062,3.777587,-8.912435
23.070417,0.08799,3.609986,-9.277114,-1.058125,3.783423,-8.936527
23.104374,0.25978,3.558509,-9.184037,-1.113044,3.798985,-8.911686
23.137656,0.09622,3.543246,-9.217706,-0.964,3.774594,-8.954784
23.170998,0.281029,3.554768,-9.194063,-1.125315,3.791503,-8.94805
23.204325,0.172987,3.567189,-9.309737,-1.033584,3.764418,-8.967054
23.237664,0.164757,3.58754,-9.211272,-1.151353,3.783123,-8.955083
23.270989,0.176429,3.561652,-9.21606,-1.117085,3.73823,-8.962116
23.30436,0.12585,3.610585,-9.302703,-1.054534,3.761275,-8.924107
23.337662,0.222818,3.53741,-9.200647,-1.050194,3.747957,-8.983964
23.37107,0.174484,3.564345,-9.332782,-1.117982,3.777736,-8.942662
23.404353,0.242122,3.445529,-9.148122,-1.10242,3.744665,-8.998479
23.437655,0.217581,3.500149,-9.217706,-1.062465,3.754691,-8.938921
23.470974,0.197529,3.503291,-9.279658,-1.010389,3.758881,-8.970197
23.504373,0.227308,3.427572,-9.205585,-1.191906,3.702316,-8.983665
23.537636,0.258433,3.563148,-9.398924,-1.183227,3.725212,-8.941615
23.570223,0.192142,3.461241,-9.264395,-0.961456,3.787762,-9.104277
23.604328,0.254393,3.316986,-9.070158,-1.243683,3.704561,-8.91872
23.637677,0.36902,3.369959,-9.220699,-1.209265,3.74661,-8.91004
23.670989,0.347321,3.349907,-9.272326,-1.066206,3.723715,-9.00252
23.704347,0.278635,3.279724,-9.216509,-1.069199,3.617169,-8.941166
23.73768,0.534525,3.17243,-9.177452,-1.164072,3.673285,-8.952838
23.770989,0.504895,3.322971,-9.317967,-1.268972,3.737033,-8.904504
23.804344,0.44863,3.249946,-9.257661,-1.197293,3.65458,-8.954784
23.837736,0.510282,3.306062,-9.258708,-1.121574,3.685406,-8.958525
23.870989,0.317393,3.23977,-9.241649,-1.096883,3.707703,-8.946404
23.904379,0.451772,3.358437,-9.314675,-1.128607,3.627345,-8.907347
23.937642,0.390269,3.353947,-9.252423,-1.065158,3.807066,-8.948648
23.970988,0.284322,3.414553,-9.296568,-1.08985,3.835648,-8.978128
24.00432,0.442494,3.441638,-9.330387,-1.165719,3.798237,-8.933534
24.037703,0.397302,3.432211,-9.290882,-1.302791,3.804672,-8.928297
24.070005,0.404934,3.43251,-9.329789,-1.040916,3.767411,-8.923957
24.104376,0.420197,3.47022,-9.253621,-1.107507,3.837593,-8.93099
24.137654,0.351511,3.490122,-9.270979,-1.05603,3.806767,-8.949845
24.171141,0.37725,3.454208,-9.252872,-1.081769,3.846871,-8.930541
24.204418,0.452221,3.457949,-9.176405,-1.116636,3.802727,-8.940567
24.238002,0.292851,3.576167,-9.234766,-1.104964,3.800482,-8.918121
24.271081,0.427829,3.47845,-9.26649,-1.1527,3.888622,-8.920216
24.304064,0.305272,3.459595,-9.245689,-1.06471,3.80138,-8.917074
24.337715,0.392065,3.525139,-9.258559,-1.046303,3.806168,-8.925154
24.371081,0.34777,3.515262,-9.242846,-1.125614,3.834451,-8.919019
24.40441,0.312604,3.526486,-9.306744,-1.132199,3.821881,-8.919468
24.43774,0.467185,3.456153,-9.199749,-1.121125,3.816793,-8.92261
24.471077,0.300184,3.465282,-9.222794,-1.106759,3.807365,-8.929344
24.50442,0.338642,3.471567,-9.259008,-1.11903,3.845524,-8.920665
24.537676,0.185557,3.639466,-9.523427,-1.142674,3.826969,-8.899565
24.571075,0.604408,3.311299,-9.014491,-1.046752,3.792102,-8.926651
24.604414,0.345974,3.36532,-9.210972,-1.1105,3.819187,-8.925304
24.637711,0.381889,3.480545,-9.320361,-1.092094,3.78043,-8.927698
24.671079,0.327718,3.41156,-9.227433,-1.116486,3.789857,-8.929943
24.704405,0.372312,3.470669,-9.255267,-1.131151,3.794945,-8.936527
24.737658,0.398649,3.410512,-9.122982,-1.103467,3.78432,-8.932936
24.771009,0.263821,3.592179,-9.463121,-1.147462,3.782225,-8.923209
24.804357,0.513425,3.511671,-9.177752,-1.108405,3.75948,-8.932487
24.837656,0.273697,3.511222,-9.347896,-1.109902,3.787912,-8.938772
24.871024,0.50729,3.307558,-9.185832,-1.11469,3.786565,-8.93952
24.904329,0.324127,3.408717,-9.249131,-1.088353,3.765017,-8.943411
24.937658,0.391765,3.419192,-9.269632,-1.104964,3.778035,-8.941166
24.971007,0.391316,3.42009,-9.260654,-1.1108,3.775192,-8.953437
25.004326,0.365428,3.366817,-9.209626,-1.12322,3.76771,-8.939969
25.037655,0.411518,3.447923,-9.267687,-1.135341,3.778484,-8.928746
25.07116,0.374257,3.430415,-9.27891,-1.109303,3.777886,-8.936677
25.104322,0.396554,3.416348,-9.243594,-1.100624,3.768458,-8.950594
25.137681,0.376651,3.436401,-9.254369,-1.137735,3.766513,-8.931439
25.17101,0.294497,3.510324,-9.377675,-1.104215,3.773995,-8.958076
25.204369,0.432468,3.444631,-9.226984,-1.128158,3.789708,-8.93548
25.237679,0.456261,3.356342,-9.179547,-1.103168,3.788361,-8.943111
25.270965,0.300483,3.409016,-9.261701,-1.158087,3.773247,-8.933235
25.304344,0.533627,3.315639,-9.220849,-1.157189,3.782974,-8.929045
25.337692,0.352559,3.299477,-9.188526,-1.652657,3.850762,-8.111546
25.370995,0.375903,3.39495,-9.278162,-1.226773,4.140471,-9.051004
25.404344,0.433216,3.55821,-9.521781,-1.444653,3.830411,-8.862753
25.437731,-0.319338,3.222711,-8.777606,-0.905489,3.770703,-8.923059