time_tick,acc_X_value,acc_Y_value,acc_Z_value,acc_A_value,acc_B_value,acc_C_value
0.010268,0.189149,3.508977,-9.554403,-2.748492,2.701354,-9.078389
0.043571,0.22641,3.434755,-9.429152,-2.693573,2.793535,-8.885349
0.076959,0.098914,3.286309,-9.350589,-2.748791,2.623839,-8.988004
0.110298,0.221023,3.240967,-9.228481,-2.862071,2.636559,-8.96466
0.143639,0.023793,3.261767,-9.258409,-2.936294,2.648082,-8.918869
0.176978,0.140066,3.276283,-9.322307,-2.750138,2.689982,-8.98127
0.21026,0.248557,3.297083,-9.394135,-2.767646,2.607678,-8.976781
0.243598,0.207854,3.332997,-9.301207,-2.773482,2.812539,-8.894328
0.276932,0.215336,3.371007,-9.325449,-2.782162,2.654067,-8.943261
0.310327,0.183313,3.353947,-9.320361,-2.878532,2.726494,-8.900014
0.343643,0.166702,3.325066,-9.330238,-2.742207,2.861472,-8.868589
0.376968,0.169845,3.216874,-9.244343,-2.689832,2.784556,-8.9898
0.410345,0.138569,3.331501,-9.32919,-2.765252,2.743554,-8.806338
0.443262,0.123605,3.332698,-9.335326,-2.779019,2.643293,-8.922012
0.476936,0.164607,3.32357,-9.266939,-2.918037,2.613215,-8.940268
0.510088,0.156227,3.294539,-9.317368,-2.851596,2.553657,-8.952539
0.543571,0.277288,3.36981,-9.379171,-2.815233,2.661101,-8.925753
0.577032,0.221771,3.288853,-9.297017,-2.749988,2.438581,-9.049807
0.610234,0.072577,3.267454,-9.298064,-3.005878,2.618153,-8.856319
0.643593,0.187802,3.333596,-9.327694,-2.780216,2.775428,-8.912285
0.676924,0.23464,3.306062,-9.285195,-2.777672,2.704946,-8.980672
0.710213,0.23449,3.364871,-9.319763,-2.780366,2.843815,-8.887594
0.743691,0.23449,3.366368,-9.330687,-2.79982,2.764055,-8.950444
0.776938,0.210847,3.333596,-9.281604,-2.875389,2.779169,-8.885948
0.810247,0.103254,3.394052,-9.281005,-2.798922,2.750886,-8.912285
0.843647,0.141413,3.302321,-9.272476,-2.974902,2.593013,-8.920366
0.876926,0.268459,3.332099,-9.302853,-2.948714,2.646884,-8.988154
0.910262,0.192142,3.263413,-9.282651,-2.97999,2.78291,-9.242397
0.943588,0.191393,3.351852,-9.351188,-3.036704,2.048163,-9.28744
0.976911,0.279982,3.337038,-9.341611,-3.674483,2.415387,-9.642842
1.010238,0.13827,3.279276,-9.275917,-4.341292,2.809995,-10.351252
1.043596,0.21354,3.347962,-9.342808,-6.386761,4.184765,-12.378614
1.076906,0.298687,3.274936,-9.305547,-10.459294,0.796849,-13.895395
1.110265,0.126897,3.343023,-9.268585,-5.517186,-2.706293,-10.227198
1.143543,0.208752,3.358586,-9.321708,-1.557783,-2.066868,-9.585379
1.176931,0.251101,3.39061,-9.331435,-2.576103,-2.341613,-11.159323
1.210262,0.278186,3.429667,-9.326048,-4.427785,-1.445252,-11.100364
1.243559,0.224315,3.350206,-9.368546,-3.603253,-1.649664,-9.774827
1.276896,0.169246,3.132775,-9.264694,-4.35865,-1.108405,-9.507714
1.310264,0.041152,3.413655,-9.333081,-3.819038,-0.197978,-8.1726
1.343554,0.019753,3.217772,-9.264544,-3.240219,2.074799,-9.225637
1.376965,0.075869,3.305014,-9.214713,-3.102398,3.355444,-8.293362
1.410227,0.209201,3.206549,-9.254069,-3.573474,4.341142,-7.180467
1.443655,0.237034,3.311748,-9.270231,-3.914959,7.544399,-7.330409
1.476901,0.50699,3.037453,-9.228331,-1.635448,10.71234,-8.117531
1.510208,-0.116721,4.239235,-10.601155,-2.803561,16.376475,-4.520863
1.543743,1.029394,3.347213,-8.924855,-4.429731,20.769094,4.024797
1.576933,0.565052,2.823014,-8.98157,2.830945,-16.087664,-9.729635
1.610231,0.52794,3.630637,-9.975199,-0.594681,35.047276,-24.965681
1.6437,0.478259,2.980588,-9.227882,-5.643335,-1.729723,-10.31414
1.676893,0.521057,1.724186,-7.701524,-3.63378,4.52221,-7.416005
1.710336,0.395057,3.942493,-10.410809,-3.222711,2.135704,-11.823289
1.743733,0.301082,2.965624,-9.154856,-3.073367,3.844028,-9.241499
1.776963,0.30168,3.19772,-9.700903,-3.057505,3.02997,-9.065669
1.810394,0.098315,2.620996,-9.744,-2.614562,2.856235,-9.037087
1.84373,0.531831,2.623989,-9.523277,-2.970412,3.07202,-8.861257
1.87697,0.554577,2.173863,-9.143334,-3.233934,2.787998,-8.660735
1.910318,0.415858,1.81876,-8.798407,-3.338983,2.981336,-8.695153
1.94365,-0.098315,2.245692,-9.40072,-3.061395,3.248599,-8.685277
1.97693,-0.27654,2.167279,-8.783143,-3.07621,3.293641,-8.649063
2.010313,-0.414212,3.097908,-9.48871,-3.178715,3.311898,-8.484157
2.043549,0.248856,3.400935,-8.838511,-3.135768,3.290648,-8.515582
2.076983,-0.79221,4.594637,-11.613191,-2.981935,3.303218,-8.814867
2.11021,-0.140814,3.37789,-9.519835,-2.536448,3.450317,-8.903905
2.143602,0.002245,3.68391,-9.906213,-2.411945,3.272691,-8.817561
2.17675,0.077515,3.746162,-9.577149,-2.840073,3.221813,-8.938173
2.210216,-0.036214,3.845375,-9.01913,-2.830047,4.559621,-8.723436
2.243631,0.199175,4.134635,-9.477636,-3.748556,6.464276,-12.763496
2.276854,-0.031425,4.592991,-8.853326,-1.47099,5.185278,-11.218881
2.31028,-0.167301,5.026207,-8.946254,-8.455275,1.501368,-12.629266
2.343559,-0.327119,5.742847,-8.906,-2.451002,3.543844,-13.492407
2.37748,-0.583009,12.135744,-13.701308,-2.860724,0.910577,-10.785815
2.41032,-0.321583,6.383618,-12.122276,-18.653442,16.308088,-18.936267
2.443649,-2.566676,4.792465,-7.239127,-18.050082,-0.77949,-14.423036
2.476947,4.524754,3.722967,-47.081711,0.446086,-4.519816,-3.543994
2.510307,2.874491,9.818373,-7.022893,1.583821,1.837166,-7.875858
2.543634,1.759951,-4.582815,-2.591217,-2.80386,2.156355,-8.204623
2.576988,-3.253537,2.517144,-10.138609,-1.951194,1.769677,-7.092028
2.610297,-6.897492,1.090299,-6.939542,-1.808585,3.718927,-8.921563
2.643566,-7.607997,1.402154,-8.005898,-4.102461,5.21775,-9.925966
2.676895,-2.566676,4.322736,-10.694383,-5.50297,6.148978,-10.020541
2.710242,-0.033969,4.408481,-9.441123,-5.819016,8.388535,-11.2949
2.743553,-0.082453,6.12324,-11.228459,-6.823419,10.619861,-14.694788
2.776912,-3.345717,6.00173,-10.188889,-6.42058,10.379085,-11.695494
2.81022,-6.614817,8.403948,-14.754346,-4.122813,9.167127,-8.247421
2.843568,-3.474859,6.0981,-7.307664,-6.736626,13.591321,-6.890758
2.876899,-2.035743,8.26059,-8.804542,-3.153127,14.731899,-0.669203
2.910312,-4.823441,10.590381,-9.300459,-3.811256,18.996873,2.521783
2.94365,-4.325579,14.227453,-11.99074,-11.440652,3.992623,-9.899779
2.976899,-5.89698,14.113275,-2.534353,-2.061481,-18.854712,-5.25142
3.010348,-3.771152,17.609383,6.051411,2.689682,14.198272,-26.363496
3.043545,5.812581,6.852749,-0.030976,-11.685019,0.516418,-11.113383
3.077029,1.405297,15.512287,-28.074813,-4.036469,3.59607,-9.822862
3.110213,-0.080209,3.484137,-15.10032,0.566249,3.608789,-10.879042
3.143551,-2.302706,5.236156,-10.749451,-4.141369,1.591153,-9.912349
3.176952,-0.490979,5.097587,-11.819099,-3.772648,2.315575,-8.98576
3.210191,0.692996,0.509085,-9.582835,-3.192483,2.09979,-9.109065
3.243644,0.563705,2.984629,-10.075759,-3.444332,2.136901,-8.950594
3.276489,1.758005,4.467291,-10.613576,-3.241117,2.014942,-8.866195
3.310298,0.897708,3.694235,-9.785152,-3.451066,2.068963,-8.912884
3.34366,0.854461,3.839389,-9.657357,-3.528132,2.404613,-8.858264
3.37688,1.084462,4.066697,-9.864164,-3.190238,2.553208,-8.997881
3.410306,1.113792,3.348411,-9.073301,-2.968916,2.791589,-9.137049
3.443549,0.848625,3.34467,-9.308988,-3.031616,2.545277,-8.944159
3.476888,0.998867,3.636324,-9.462672,-2.944674,2.960536,-8.881459
3.510282,0.776946,3.251442,-9.101284,-2.913548,2.773782,-8.945805
3.543645,1.077729,3.145644,-9.355677,-3.011415,2.771387,-8.931739
3.5766,1.030591,3.252489,-9.508911,-2.651972,2.753281,-9.317967
3.610388,0.849373,3.237525,-9.231773,-2.630424,2.676364,-9.50113
3.643572,0.645859,3.054661,-9.12388,-2.670977,1.614947,-9.363758
3.67696,0.776946,3.073068,-9.464916,-3.842681,1.98666,-9.96622
3.710202,1.006648,3.23124,-9.311682,-2.863418,2.918486,-12.593352
3.743573,0.827974,4.918015,-10.985289,-6.532214,1.343494,-15.185916
3.77645,0.578669,4.795159,-9.03574,-1.837466,1.544914,-11.949139
3.810256,2.159647,-0.285668,-7.66561,-19.911939,15.614493,-44.456226
3.843572,-1.912138,3.698126,-7.630892,-12.92092,-0.531382,-6.480437
3.876866,0.953674,5.755268,-12.746736,-0.779789,-6.895248,-1.170357
3.910211,7.006283,16.796224,-32.658526,0.15488,-0.685065,-7.596475
3.943569,2.564581,-4.476868,-6.248341,-1.934285,-1.028496,-9.907111
3.976966,3.346316,-4.706121,-6.833146,-1.196695,-0.577771,-6.80636
4.010211,0.549339,1.324789,-12.10357,-1.100474,1.434926,-8.651008
4.043566,-1.168113,1.146864,-8.947451,-3.169438,2.593013,-9.025116
4.076897,-2.373636,3.076509,-9.190172,-3.781328,5.548012,-14.187947
4.110216,-2.384261,4.214394,-10.426522,-5.702593,8.564664,-15.043605
4.14305,-1.86096,4.864593,-8.305932,-6.617211,9.347596,-11.710309
4.176898,0.931228,5.848795,-11.644316,-7.534672,15.323438,-12.592304
4.210212,-2.399225,9.608723,-14.439497,-7.215783,14.615627,-12.38894
4.243566,-3.727007,8.442406,-6.719567,-4.647461,19.673857,-1.070546
4.276879,-1.115588,11.983258,-10.202207,-4.640128,28.052665,3.129333
4.310295,-0.448779,14.351208,-11.959913,-4.60182,10.06274,2.650476
4.343546,-0.918059,11.100215,-3.930073,-7.195132,28.312146,-20.648781
4.376964,-2.927166,11.649404,-2.424515,0.140215,3.455854,-11.587452
4.410218,-6.721961,21.022589,1.438368,-5.365298,5.107314,-11.960213
4.443533,0.51118,18.902448,26.137535,-3.554918,1.896874,-9.226535
4.476866,6.066226,9.724697,-56.104882,-2.688934,1.284685,-9.082579
4.510232,-5.050749,-0.572983,-8.765485,-3.083543,1.967356,-8.980522
4.543521,-0.334452,2.092906,-7.659624,-3.937256,2.341014,-9.698808
4.576985,2.515498,6.42492,-12.482766,-2.85399,2.079887,-9.243445
4.610209,-0.570589,0.715293,-8.061565,-3.753195,2.456239,-8.750072
4.643627,1.184424,3.119307,-10.855099,-3.315489,2.074799,-8.980971
4.676968,1.793022,3.828166,-9.666934,-3.505985,3.196972,-8.917971
4.710201,1.138633,4.045896,-10.494909,-3.245157,2.764354,-8.939819
4.744209,1.074436,3.114968,-9.057289,-3.341377,2.884517,-8.818608
4.77694,1.169909,3.724613,-9.836181,-3.203706,2.893197,-8.777307
4.810232,0.928534,3.582452,-9.20783,-3.263413,2.920731,-8.783143
4.843782,0.830967,3.616122,-9.155305,-3.194578,2.757022,-8.708022
4.876871,0.705267,3.499251,-9.058785,-3.045683,2.930757,-8.973639
4.910229,0.710355,3.540702,-9.233868,-2.99241,2.685343,-9.179697
4.943533,0.663666,3.72581,-9.110861,-2.84172,1.975287,-9.070458
4.976876,0.705866,3.562999,-9.158298,-4.42584,6.447217,-10.609835
5.01023,0.694493,3.662511,-9.045617,-4.077022,2.931805,-13.480286
5.04337,0.034268,4.609152,-8.419361,-7.14575,1.238595,-15.854521
5.076877,0.623263,4.302684,-8.920815,-2.515199,-0.205909,-10.074262
5.110249,0.74193,3.839988,-8.786286,-11.78962,4.685021,-47.607257
5.1438,2.578198,1.073987,-8.320297,-13.55406,11.851871,-18.636533
5.176878,-0.3982,4.121915,-10.688996,0.143358,-7.240175,-12.597093
5.210228,0.506242,6.120247,-11.628753,-2.601842,-6.031359,-5.275512
5.244025,3.381033,4.851574,-38.624491,-4.095428,0.560562,-9.328592
5.276896,5.100131,-0.162961,-1.832228,-5.021419,-0.624011,-9.394435
5.310294,1.899119,-4.627708,-6.354588,-2.989866,2.219205,-8.350525
5.343547,-0.128244,1.363397,-11.498564,-4.842895,3.295886,-9.818373
5.376895,-0.222669,-0.013767,-8.456024,-6.738422,3.662062,-13.03001
5.410221,-1.210611,2.250031,-10.210138,-10.527681,8.052137,-14.165201
5.443443,-1.970947,3.547885,-10.5826,-7.672643,9.91205,-12.082321
5.47688,-1.611206,5.733121,-9.942277,-14.329958,15.982615,-13.32331
5.510217,0.982705,5.558038,-10.086234,-10.171081,16.919529,-7.340884
5.543154,0.49442,9.321708,-16.950356,-3.566291,29.107798,2.745499
5.576916,0.126598,10.587837,-9.787098,-6.572468,20.643095,3.192034
5.610204,-2.421373,11.991338,-6.702208,-3.94369,-1.781799,-11.13134
5.643547,-2.303005,14.471371,-18.30672,-0.836654,24.315033,-26.946355
5.676881,-3.548932,19.236002,0.870772,-9.96622,-2.068514,-11.773608
5.710282,-1.731818,21.853557,8.534437,-4.088395,5.576893,-12.934987
5.743546,-0.593634,17.905826,10.673882,-4.163665,1.871435,-10.595469
5.776899,-15.223776,-7.660073,-37.781103,-3.31923,1.778955,-9.743252
5.810206,2.102334,7.156674,-22.635591,-3.274637,1.062016,-9.55994
5.843515,-1.828338,-4.105604,-11.344282,-3.177219,0.957266,-8.954634
5.876885,2.139595,5.825151,-10.25129,-3.396147,1.783445,-9.085721
5.910288,-0.155778,3.730748,-10.043885,-3.10539,2.127623,-9.165481
5.943634,1.15689,3.704411,-10.92588,-3.161806,2.382166,-9.166079
5.976917,0.96804,3.596219,-9.427805,-3.110778,2.608576,-8.962864
6.010211,0.587797,3.903137,-9.72335,-3.117661,2.572662,-9.047413
6.043201,0.975822,3.664606,-9.455339,-3.035507,2.566377,-9.000724
6.076868,1.037026,3.816793,-9.91205,-2.99241,2.44741,-9.049059
6.110209,0.649301,3.665205,-8.708771,-2.95036,2.324554,-9.048759
6.143414,0.62461,3.905232,-9.29148,-3.005279,2.439479,-9.154108
6.176879,0.472423,3.946982,-8.93967,-2.743703,2.071807,-9.331884
6.210216,0.463145,4.143613,-8.885948,-2.988819,1.832677,-9.395632
6.243542,0.504596,4.0444,-9.013444,-3.902089,1.495981,-10.19667
6.276906,0.496665,4.208109,-8.945955,-6.874747,6.531316,-19.773669
6.310211,0.569541,4.269762,-8.716702,-9.372587,-1.121724,-20.24699
6.343548,0.365877,4.715249,-8.067102,-2.076745,-0.429026,-12.803899
6.37691,0.446235,5.344348,-8.572147,-18.43631,9.736518,-28.848616
6.410214,0.527042,3.460643,-8.157785,-1.876822,-5.694513,-7.941102
6.443562,5.185577,14.163256,-8.314012,2.676514,-2.679207,-5.201888
6.47686,1.224229,6.840179,-8.310571,-0.925991,-2.646884,-8.515282
6.510182,0.503997,5.566718,-14.577617,-2.564282,-1.662832,-8.342744
6.543254,10.525586,14.92015,-24.350948,-0.946791,-0.427231,-7.023641
6.57688,4.118174,-4.111141,-8.397962,-1.174398,0.916563,-7.84578
6.610193,2.652571,-6.028366,-6.091366,-3.530526,3.469771,-13.210479
6.643214,-1.506605,1.413976,-11.728865,-4.787078,3.996813,-13.639655
6.676876,-0.982556,0.716939,-9.16563,-6.64714,6.886568,-14.240621
6.710286,-1.438518,3.625699,-11.497217,-7.51028,11.559918,-17.283611
6.743548,-3.727007,5.491597,-9.032448,-11.454569,16.025562,-15.81277
6.776865,-3.598015,6.983986,-10.121699,-10.193827,18.709558,-9.650025
6.81021,-0.742828,10.603998,-19.046255,-5.336118,26.133944,6.736028
6.843545,-1.156141,15.999674,-15.145662,-5.613556,20.470856,-0.079161
6.876866,-1.239044,15.572743,-5.596646,-4.317049,-3.626746,-13.479986
6.910209,-2.059087,13.840775,-4.916968,-17.089524,17.853601,-28.164598
6.943609,-5.717707,21.160111,-4.362242,1.278849,1.742293,-6.648486
6.976857,-1.84001,19.368287,13.058143,-5.790883,4.456217,-11.37451
7.010329,-3.885629,24.71473,20.954801,-1.613001,2.086621,-11.203019
7.043602,3.062742,38.437287,-26.347035,-3.264461,0.97238,-8.723885
7.076878,-4.787527,-3.557761,-8.207167,-2.805656,1.359357,-10.023534
7.11025,2.404762,9.559491,-11.794707,-3.602953,0.688657,-9.261701
7.143267,-1.628714,2.904121,-9.486465,-2.90861,0.491577,-8.877568
7.176877,0.25559,1.816965,-9.888406,-4.205715,1.145966,-9.18688
7.210197,0.772457,2.223245,-8.375965,-3.186347,0.61608,-8.500767
7.243401,1.373124,2.84561,-9.697312,-4.103958,1.712813,-8.925753
7.276879,1.11469,2.56922,-8.984862,-3.383876,1.81068,-9.352385
7.31023,1.300996,2.585381,-9.043223,-3.599212,2.033947,-9.21202
7.343545,1.25296,3.725212,-10.203255,-3.115716,2.139445,-9.194512
7.376878,1.297255,3.287955,-9.431546,-3.035058,2.33024,-9.058486
7.410289,1.263136,3.696031,-9.525222,-3.006177,2.256167,-9.028109
7.443636,1.092842,3.45765,-9.54707,-3.040146,2.273825,-9.013893
7.47686,0.960259,3.598913,-9.236112,-2.983581,2.484671,-9.262449
7.510191,0.902796,3.565094,-9.012246,-2.609324,2.25048,-9.487662
7.543546,0.879302,3.252489,-9.170868,-2.261404,1.899268,-9.603935
7.576884,0.819594,3.121552,-9.280706,-3.360831,1.612253,-9.079586
7.610683,0.868677,3.991726,-8.833274,-4.164563,2.570267,-10.214777
7.643541,-0.106396,5.188869,-9.399522,-6.657465,2.576103,-13.854243
7.676879,0.899204,4.575632,-9.567721,-8.033731,-1.141027,-16.88586
7.709911,3.633181,-1.82714,-7.61937,-1.491342,-0.286417,-12.351828
7.743568,0.973128,8.001558,-10.913161,-25.335748,10.602053,-15.854221
7.776875,1.352473,6.178608,-13.036145,0.374856,-5.480224,-9.544975
7.810775,9.100685,22.327476,-56.410303,1.081619,-4.165012,-2.519239
7.843518,5.061822,-0.493672,-1.241139,-3.524989,-1.464705,-7.63613
7.876879,2.694172,-3.780579,-3.976761,-2.17087,-0.219227,-6.635767
7.910171,-0.867331,2.050707,-13.910659,-0.600966,2.50203,-6.351296
7.943546,0.044294,0.719483,-9.321409,-0.188251,4.558723,-7.839046
7.976883,-2.011351,2.136901,-8.828186,-3.362776,8.118579,-12.943217
8.010507,-2.846059,4.579224,-9.737117,-4.696245,6.771792,-11.746373
8.043543,-2.168177,5.746888,-10.269846,-7.407775,8.739747,-10.554616
8.07695,-0.654838,6.196714,-8.921862,-7.704517,7.160265,-13.377032
8.110189,-2.465816,13.333635,-16.682046,-6.104085,6.239063,-11.503353
8.143582,-2.654666,12.110304,-13.186237,-4.398754,6.411003,-10.614324
8.17705,-0.273248,10.825021,-10.399137,-3.414104,5.533946,-8.402003
8.210187,-2.05774,8.41966,-4.099917,-3.710696,5.879172,-6.381374
8.243545,-2.991063,8.421306,-5.395077,-3.710696,7.512226,-8.93548
8.276858,-3.352301,10.249943,-4.551091,-4.269912,8.926651,-5.040423
8.310172,-1.66807,12.372778,-0.05028,-4.800546,12.343149,-2.025567
8.343533,-0.879601,14.174778,5.618344,-5.627323,12.544868,-6.495402
8.376848,-4.353862,2.559792,-2.039484,-4.482405,-1.302043,-8.658939
8.410205,12.293018,12.692266,-16.820765,6.317177,-34.902571,9.054146
8.443582,-4.561865,8.682583,-24.631229,-12.956386,1.086109,-23.519232
8.476852,4.548248,5.202487,-10.022187,-7.385029,-4.414018,-10.409313
8.510209,-2.129269,1.738851,-7.809267,-3.916754,1.434477,-11.758943
8.543519,-0.487686,5.59904,-13.821023,-1.95703,1.383748,-10.566588
8.576855,1.419064,3.250544,-9.992707,-1.949399,0.912223,-9.298364
8.610343,1.472936,3.55387,-9.290283,-2.906814,0.410471,-9.35463
8.643707,1.455876,3.952968,-10.00393,-3.622556,-0.182564,-8.392874
8.676891,1.189811,3.303368,-9.262749,-2.181944,1.103916,-9.114303
8.710203,1.523515,3.328059,-9.152163,-4.343087,1.572298,-9.458931
8.743561,1.566163,3.624651,-9.504871,-2.875988,-0.021399,-9.528365
8.776877,1.39542,3.681067,-9.355527,-4.061459,2.084077,-9.022871
8.810281,1.291119,3.693338,-9.228331,-3.891914,1.704433,-8.997432
8.843542,1.410385,3.559257,-9.167576,-3.516609,2.225041,-9.021375
8.876881,1.199089,3.732843,-8.888941,-3.266706,1.904057,-9.105025
8.910333,1.309226,3.744665,-9.067165,-3.402432,1.642331,-9.045617
8.943535,1.114092,3.672687,-9.0528,-3.203855,2.697015,-8.954335
8.976876,1.025653,3.898199,-9.04846,-3.173179,2.112509,-9.201246
9.010337,0.832913,3.907776,-8.973339,-3.07606,2.33877,-9.026911
9.04354,1.028795,3.954315,-9.003268,-2.922676,2.298366,-9.129118
9.076853,0.8383,4.697591,-9.18688,-2.602291,2.158749,-9.296568
9.110235,0.960857,4.36299,-9.069859,-2.520436,2.053849,-9.426159
9.143523,0.824233,4.622321,-8.93129,-3.008422,1.64293,-9.365553
9.176868,0.861345,4.263178,-8.293811,-4.374512,1.547907,-9.933748
9.210205,1.784193,0.650947,-7.140213,-5.804201,5.045212,-15.51513
9.243651,-2.622792,5.972998,-9.118044,-8.037772,0.05043,-17.477847
9.276921,-0.006135,5.875132,-9.465365,-0.200671,0.447732,-14.247206
9.310322,1.268823,2.307644,-16.459377,-18.488685,1.327333,-12.424555
9.343522,3.872161,15.286925,-6.521739,-0.956667,-0.011523,-11.545702
9.376869,1.083265,-0.940955,-3.802128,-0.585104,-8.245027,-4.197185
9.410168,0.676087,-4.077471,-5.735515,-4.91203,-3.042391,-8.322841
9.443526,-2.233571,1.653106,-8.995486,-3.0593,-0.08784,-8.683032
9.476876,-1.177091,3.345567,-8.838511,-0.544102,1.716255,-9.262749
9.510267,-0.538116,3.926032,-7.969235,-0.982406,4.459061,-13.257617
9.543543,-1.967655,7.14171,-8.847639,-3.201162,4.697142,-12.594699
9.576879,-1.278699,8.913482,-11.748917,-4.453075,5.815275,-11.521459
9.610258,0.168348,13.231729,-15.233053,-10.463633,7.53572,-14.478254
9.643547,-1.074736,11.86474,-11.353111,-8.767131,8.091194,-15.20941
9.676887,-0.971632,10.332696,-9.849648,-5.0503,10.484883,-9.293276
9.710229,-0.898157,9.134056,-10.048225,-7.534522,8.257597,-7.189446
9.743528,-5.789835,9.726343,-6.646391,-5.91359,9.814033,-6.528922
9.776919,-3.770404,8.238293,-3.480246,-6.888065,12.544868,-5.757363
9.810256,-1.385843,9.300309,-5.208023,-2.052802,12.101176,-3.270147
9.843533,0.659626,8.884302,-1.052439,-5.770232,8.223329,-3.659818
9.876861,0.696139,9.679355,-1.35801,-8.77626,6.216018,-6.262707
9.910242,1.268972,9.992557,3.285112,2.636709,-6.471609,-11.03078
9.943522,-4.411773,-12.530951,8.670612,-10.725658,21.026779,-22.741239
9.976857,-2.690281,25.524897,-31.633023,-6.090917,-5.319956,-10.778033
10.010391,2.691029,8.068448,-15.478019,-8.311768,0.409573,-7.877803
10.043593,-0.641519,1.531596,-5.275961,-1.086408,2.746846,-9.880475
10.077001,-1.428043,7.880796,-20.862471,-3.369361,2.492303,-10.857643
10.11019,1.826691,7.815253,-8.993092,-2.324554,2.098443,-9.473446
10.143551,0.567296,4.328273,-10.053612,-3.819187,1.29486,-9.159046
10.176902,1.019817,3.248599,-10.897448,-3.884731,1.368036,-9.063724
10.210185,1.558681,3.073816,-8.245177,-5.194705,1.2573,-9.212768
10.243526,0.210099,3.116614,-10.113319,-3.584398,1.802599,-8.485204
10.27744,0.675488,1.98217,-8.353069,-3.538008,1.156441,-8.698894
10.310194,0.646757,2.409102,-9.131063,-3.959103,1.330326,-8.416368
10.343512,-0.122558,2.225789,-8.567657,-3.165098,2.919235,-9.324252
10.376808,0.886784,1.661486,-8.047798,-3.242613,2.588973,-9.052949
10.410094,1.040916,3.165846,-10.688397,-3.739727,1.902261,-8.775062
10.443611,1.080272,2.848453,-9.221597,-3.157765,3.047628,-8.902558
10.477219,0.972978,2.016439,-8.737203,-3.285411,2.31363,-8.978577
10.510175,1.580529,3.512719,-9.569218,-3.335242,2.692077,-8.882656
10.543564,0.858801,3.081148,-9.94138,-3.178566,2.764504,-8.762492
10.577229,1.115887,3.832206,-9.773031,-2.951557,2.517743,-9.008805
10.610435,0.902946,3.606096,-9.138844,-3.275983,2.416285,-8.909442
10.643521,0.638078,3.331202,-9.286692,-3.130979,2.776775,-8.891934
10.677229,0.549788,3.223608,-9.238507,-3.364871,2.593761,-8.729571
10.710331,0.913121,4.522808,-8.336609,-3.229145,2.068365,-9.201246
10.743524,1.088652,3.918251,-10.48189,-3.196523,2.630573,-8.875922
10.77686,-0.067788,4.751463,-6.802619,-2.922826,2.662597,-8.933385
10.810296,-1.080572,6.62185,-12.163428,-3.451664,2.304801,-8.904653
10.843519,4.208259,-9.936441,-21.873459,-2.953353,2.723801,-8.950444
10.876857,0.742678,9.261103,-24.523187,-2.894843,3.076659,-8.541769
10.910328,2.813587,-7.39311,-7.429623,-3.030569,2.676663,-8.795115
10.943538,-1.465304,0.029929,-12.511647,-3.063191,2.86252,-8.726877
10.977066,-2.018983,1.218094,-10.713986,-3.204155,2.588823,-8.844796
11.010198,-2.428855,3.881738,-9.297017,-3.027277,2.413441,-9.000275
11.043518,-2.205138,5.324296,-11.40369,-3.086984,2.948265,-8.678842
11.077061,0.652593,8.884152,-10.109279,-2.733079,2.822416,-8.654749
11.110197,-4.449334,14.140211,-6.843471,-3.380883,2.076595,-9.290133
11.143665,-6.425518,15.591448,-5.880968,-3.12649,2.31348,-8.952838
11.176867,-0.512377,13.316726,-2.86671,-2.889306,2.54378,-8.838361
11.210173,1.962118,14.726662,-2.713326,-3.372054,1.796913,-8.988902
11.243541,-2.813886,14.714241,3.477552,-3.340031,2.173713,-8.920216
11.276938,-7.607847,18.427332,-11.783185,-3.099854,2.509662,-8.93548
11.310212,4.364187,0.851169,-8.057674,-3.170485,2.613065,-8.833573
11.343342,-2.504873,4.950338,-11.067443,-3.07187,2.276967,-8.993391
11.37695,-0.272201,2.278314,-8.110348,-3.263413,2.351789,-9.064023
11.410083,1.348433,3.100003,-10.344817,-3.12634,2.505921,-8.888492
11.443496,0.85925,4.416412,-10.102395,-3.197122,1.695155,-9.057888
11.476871,0.563555,3.889519,-9.093652,-3.428769,2.101885,-9.057139
11.510188,0.911924,3.171533,-9.610369,-3.078305,2.377078,-8.97723
11.543525,0.434264,4.07358,-9.424962,-3.186347,2.130616,-8.875323
11.57702,0.556223,3.747658,-9.319015,-3.153725,2.182393,-9.212169
11.610123,0.390119,3.509127,-8.723436,-3.358736,2.192868,-8.631405
11.643536,0.591987,3.857496,-9.727689,-3.523792,2.083778,-8.913482
11.67694,0.226859,3.668646,-8.966156,-3.475757,1.85258,-8.729421
11.710377,0.265317,3.652036,-9.116847,-3.238423,2.131065,-8.971394
11.74349,0.508038,3.783273,-9.408501,-3.313244,2.09141,-8.993691
11.776906,0.609346,3.586642,-9.172065,-3.171682,2.1164,-8.997881
11.810402,0.254992,3.59592,-9.000275,-3.256829,2.113856,-8.936228
11.843507,0.266664,3.729551,-9.004016,-3.203257,2.247338,-8.977679
11.876906,0.529886,3.404227,-9.262001,-3.169887,2.072106,-8.98576
11.910408,0.786972,3.662062,-9.321558,-3.20176,2.101286,-8.98576
11.943521,0.565052,3.211787,-9.306893,-3.170784,2.101286,-8.93129
11.976869,0.487836,3.506733,-8.945057,-3.126939,2.242699,-8.974686
12.01048,0.583009,3.595172,-9.322157,-3.191585,2.167578,-8.959423
12.043555,0.492625,3.627195,-9.077192,-3.13921,2.158151,-8.923807
12.077089,0.646458,3.533669,-9.64793,-3.296185,1.671362,-9.35433
12.110215,0.903694,3.414553,-9.011648,-3.39914,1.979627,-9.122533