time_tick,acc_X_value,acc_Y_value,acc_Z_value,acc_X_value,acc_Y_value,acc_Z_value
0.009416,1.411881,2.869703,-9.429301,-0.580914,3.131428,-9.170569
0.03417,1.34933,2.834836,-9.366152,-0.45686,3.18934,-9.209177
0.067519,1.351874,2.831394,-9.36286,-0.458955,3.173029,-9.231174
0.10083,1.300397,2.838128,-9.369743,-0.460302,3.194578,-9.218155
0.134164,1.335414,2.79114,-9.364207,-0.40658,3.173777,-9.251974
0.167581,1.346338,2.855936,-9.397427,-0.478558,3.121253,-9.183288
0.200821,1.378361,2.787399,-9.33772,-0.386528,3.165397,-9.269782
0.234189,1.341998,2.846508,-9.40042,-0.433366,3.208943,-9.254818
0.267516,1.30354,2.814784,-9.413888,-0.527042,3.187245,-9.206782
0.300797,1.300098,2.828551,-9.398625,-0.473171,3.239919,-9.198402
0.334284,1.314015,2.868805,-9.403862,-0.425585,3.141305,-9.254518
0.367518,1.346936,2.792337,-9.351188,-0.372761,3.160908,-9.287141
0.400854,1.34933,2.889755,-9.405658,-0.383984,3.199516,-9.268136
0.434273,1.332122,2.847406,-9.393237,-0.467335,3.209093,-9.20364
0.467527,1.361003,2.830197,-9.385905,-0.444888,3.15597,-9.252573
0.500876,1.347086,2.855936,-9.374382,-0.48604,3.175423,-9.205735
0.534248,1.334965,2.784257,-9.339815,-0.385331,3.187844,-9.288188
0.567519,1.3622,2.85818,-9.396081,-0.425435,3.237974,-9.226535
0.600857,1.343345,2.852494,-9.398026,-0.531831,3.17273,-9.183438
0.634172,1.35352,2.770041,-9.334428,-0.443542,3.238573,-9.226086
0.667526,1.344392,2.873294,-9.404311,-0.38563,3.207746,-9.260055
0.700882,1.336012,2.859078,-9.405658,-0.516867,3.161207,-9.179547
0.734191,1.380606,2.848902,-9.371988,-0.470328,3.242912,-9.207381
0.767522,1.361302,2.873893,-9.412392,-0.478409,3.15567,-9.192566
0.800684,1.368634,2.834836,-9.389646,-0.562657,3.199965,-9.174759
0.834193,1.330625,2.862221,-9.407154,-0.40658,3.234233,-9.271578
0.867523,1.339304,2.780216,-9.327095,-0.403138,3.227349,-9.286093
0.900833,1.364444,2.90008,-9.417031,-0.575227,3.164649,-9.112807
0.933502,1.38704,2.887361,-9.416582,-0.444589,3.217772,-9.224291
0.967617,1.239642,2.752233,-9.353432,-0.516717,3.149535,-9.198103
1.000954,1.375518,2.888259,-9.431845,-0.490979,3.278827,-9.177602
1.034194,1.386292,2.751635,-9.340563,-0.421095,3.228247,-9.234915
1.067523,1.294711,2.597203,-9.248383,-0.515969,3.149984,-9.21621
1.100857,1.321198,2.881076,-9.381715,-0.454466,3.180362,-9.247336
1.134187,1.40829,2.901876,-9.435886,-0.549339,3.157616,-9.05699
1.167268,1.378361,2.896639,-9.425261,-0.389072,3.30247,-9.309138
1.200826,1.377014,2.924921,-9.424513,-0.436957,3.237974,-9.194512
1.234158,1.359805,2.697913,-9.311832,-0.488734,3.258026,-9.154108
1.267496,1.425349,2.623839,-9.225787,-0.51537,3.1642,-9.150965
1.300825,1.377613,2.752832,-9.324551,-0.394309,3.292145,-9.233868
1.334148,1.317756,2.792487,-9.382762,-0.421993,3.318183,-9.216509
1.367495,1.520223,3.04673,-9.489308,-0.61174,3.135918,-9.249879
1.400915,1.470541,2.906964,-9.417779,-0.382487,3.438047,-9.194362
1.43416,1.388836,2.794133,-9.389347,-0.482898,3.268352,-9.27053
1.467252,1.534738,2.749988,-9.339216,0.019454,3.092222,-9.542431
1.5009,1.421758,2.513253,-9.216359,-0.160268,3.431762,-9.243894
1.534158,1.46261,2.895292,-9.460128,-0.234191,3.461391,-8.795563
1.567517,1.42056,2.815682,-9.435886,-1.333319,3.42398,-8.938772
1.600374,1.399162,2.82047,-9.398026,-0.146351,3.454208,-9.577298
1.634242,1.46276,2.776775,-9.363159,-0.374107,3.277929,-9.199151
1.667531,1.397665,2.790691,-9.388898,-0.772158,3.153276,-8.966156
1.700873,1.479071,2.899482,-9.472099,-0.274894,3.346765,-9.317518
1.734187,1.432981,2.838128,-9.546921,-0.482898,3.194129,-9.142735
1.767529,1.46261,2.709585,-9.497838,-0.994677,2.953802,-8.931739
1.800822,1.624524,2.593312,-9.359119,-0.679978,3.363973,-9.142885
1.834177,0.337894,0.095023,-9.130913,-0.518363,3.053614,-9.353881
1.867546,0.168049,0.467485,-12.597691,-0.724272,3.026379,-8.977679
1.900824,3.039548,-2.733378,-15.763089,-0.939758,3.415002,-9.132709
1.934157,2.264996,-4.870429,-14.444136,-0.191543,3.344819,-9.486764
1.967552,-0.508038,-4.808178,-10.534265,-0.298837,3.324019,-9.259008
2.000856,2.044871,-2.658706,-11.239532,-0.355552,3.368163,-9.260654
2.034159,2.926567,-1.303989,-11.646112,-0.450276,3.14759,-9.211721
2.06747,3.546687,-0.60785,-10.507778,-0.313801,3.16435,-9.220699
2.100823,3.001538,0.874214,-9.766297,-0.331609,3.161507,-9.227283
2.134157,2.559194,3.490422,-12.488751,-0.340587,3.135169,-9.218903
2.16747,4.08615,3.760228,-10.514512,-0.321732,3.062593,-9.237758
2.200845,2.649129,4.415963,-6.521589,-0.239429,3.002885,-9.416282
2.234182,2.416883,5.399118,-5.418272,-0.44429,3.13906,-9.239404
2.267324,2.409401,8.771172,-8.100173,-0.132284,3.303368,-9.596004
2.300862,3.801978,10.341225,-6.845866,-0.321583,3.454507,-9.557396
2.334164,2.033199,9.079586,2.58164,-0.44848,3.875154,-9.54707
2.367931,1.548954,14.029924,7.261424,-0.388174,3.931419,-9.601391
2.400886,-3.114219,13.946124,-16.63446,-0.534824,4.0025,-10.240067
2.434221,11.771962,15.207315,-9.316171,-1.665077,3.539954,-10.681065
2.467493,-2.718863,6.593568,-13.937145,-3.147889,1.37447,-12.569259
2.5009,0.711851,2.219205,-8.41128,1.102719,1.690217,-14.414806
2.534182,1.300098,2.924023,-9.386204,3.333746,0.377549,-12.092347
2.567512,1.377763,2.926717,-9.628775,-0.893069,2.004916,-9.453843
2.600827,1.431335,3.046132,-9.432145,-9.863416,6.997753,-19.744489
2.634182,1.319701,2.952306,-9.385456,-12.870939,-2.876287,-10.794793
2.667578,1.318803,2.96323,-9.350589,-2.044272,-0.773355,-8.723585
2.700825,1.291568,2.909059,-9.355827,-1.871435,0.274445,-8.317604
2.734179,1.451387,2.765102,-9.30435,-2.408952,4.58491,-10.800779
2.767469,1.423254,2.886164,-9.172065,0.577322,5.886804,-11.837954
2.800824,1.375069,2.934498,-9.393537,3.094616,6.670334,-12.487554
2.834196,1.340801,2.864166,-9.382313,1.558382,7.274742,-13.591321
2.867497,1.308777,2.675466,-9.033645,-0.739685,9.795927,-15.309371
2.899993,1.598037,2.915793,-8.962565,-4.363439,17.512714,-15.528299
2.934196,1.422057,3.018448,-9.485118,-3.738081,21.200365,-3.860189
2.967588,1.545812,3.03027,-9.42586,2.719611,24.055253,4.779596
3.000867,1.618538,3.133224,-9.625783,6.063233,20.488514,5.465559
3.034146,1.971845,3.23977,-10.030866,-2.648979,-6.560496,-16.911299
3.067522,-0.67878,-2.014044,-9.762855,2.681751,8.683032,-25.971431
3.100884,1.333768,1.095237,-11.238335,-2.849052,8.96062,-13.113062
3.134156,0.917461,6.497646,-11.875664,-3.380285,6.804714,-10.945484
3.167493,3.592478,16.075094,-13.932806,1.578434,4.024797,-10.791052
3.200842,11.316748,9.811041,-35.585991,0.266065,3.233335,-9.831691
3.234161,13.361319,0.664714,-21.081549,-0.442793,3.2061,-9.420622
3.267492,8.16826,-6.649384,-2.817627,-0.737141,3.119158,-9.449204
3.300822,3.787164,-3.219718,-4.382593,-0.832314,3.063191,-9.284447
3.33416,6.132518,0.262773,-9.533752,-0.793108,2.860275,-9.171766
3.367493,5.377569,4.780344,-12.751225,-0.730707,3.099255,-9.283998
3.400825,1.010988,7.509532,-12.724289,-0.785177,3.259972,-9.254668
3.434158,-1.522467,8.187714,-12.9504,-0.70811,2.909358,-9.186581
3.46759,0.170892,7.280279,-12.871837,-1.12337,3.212535,-9.182091
3.500831,3.275534,12.830386,-17.750646,-1.007097,3.02997,-9.213816
3.534147,5.709926,22.846288,-15.985458,-0.968489,3.016503,-9.42975
3.566905,4.149449,26.2987,-0.784428,-0.828573,3.244708,-9.499185
3.600473,1.802898,20.388552,4.932082,-0.670849,3.484137,-9.714072
3.633611,-2.785454,19.039671,8.800053,-0.911026,3.695133,-10.246053
3.667496,-4.912778,-13.104532,-16.181939,-1.709072,3.959253,-9.67277
3.700826,6.76416,6.302063,-23.137344,-1.335863,3.458398,-11.448883
3.734161,9.268286,1.993244,-14.197973,-1.224828,-0.133631,-13.232626
3.767494,-3.108234,5.122428,-12.789085,-3.557013,1.669417,-13.899136
3.800866,0.931078,4.206912,-11.331114,-0.743426,-0.74597,-12.807641
3.834244,1.125614,3.322822,-9.799219,-1.676899,2.104129,-10.236326
3.867493,1.167365,3.219568,-9.327843,-10.456899,19.55534,-27.229779
3.900823,1.309825,3.285561,-9.234317,-6.52952,0.307666,-6.841825
3.933304,1.274359,2.873743,-9.86985,-3.1015,-2.319765,-4.799049
3.967494,1.280345,2.662597,-9.267388,0.093078,1.600132,-7.022145
4.000744,1.224678,2.763905,-9.618001,-2.674269,4.752211,-9.096196
4.03416,1.19026,2.909957,-9.130015,-1.696652,6.172023,-9.676512
4.067514,1.158835,2.789494,-9.37947,1.093291,7.297039,-9.825257
4.099885,1.380007,2.855487,-9.488111,1.09404,7.400742,-11.395161
4.134168,1.344841,2.940334,-9.520284,-1.237996,9.988517,-14.758536
4.167499,1.357561,2.968617,-9.505919,-2.444118,14.075416,-17.793893
4.200827,1.223481,2.890503,-9.49709,-2.928064,22.546852,-12.143226
4.233813,1.318953,3.01351,-9.549165,0.408525,21.733693,0.363333
4.26758,1.295908,3.1012,-9.481976,10.206248,30.890794,10.445976
4.300829,1.73077,3.382679,-9.733525,8.722987,12.58168,-1.425199
4.334158,-0.101907,0.273547,-9.293725,-7.766619,-7.264118,1.398713
4.367494,2.345055,2.128072,-10.779829,-1.050344,9.327095,-18.730658
4.400854,0.874813,5.719653,-12.403754,-3.683311,11.513528,-16.619046
4.43416,6.08957,2.899332,-12.83308,3.285112,4.420004,-9.669778
4.467491,6.883426,17.820081,-19.197544,-0.283873,3.193231,-9.931054
4.500828,16.045166,15.085805,-33.814068,-0.476014,3.421736,-9.103678
4.534157,10.293938,-1.784941,-9.364506,-0.64541,3.377591,-9.140341
4.567493,10.524239,-2.73263,-5.37697,-0.635683,3.184552,-9.238806
4.600825,6.971416,-0.928385,-5.445656,-0.641819,3.167642,-9.177752
4.634209,4.013723,3.377142,-7.603059,-0.753303,3.492217,-9.080035
4.667526,3.047928,7.081104,-11.041405,-0.576874,3.361579,-9.133158
4.700829,0.458805,8.4867,-10.725359,-0.688956,3.787463,-9.106073
4.734179,1.091196,8.190258,-11.537471,-0.78368,3.522894,-9.022123
4.7675,3.009619,7.826176,-12.742546,-0.859699,3.708452,-9.005064
4.800824,1.448993,9.187927,-10.749451,-0.772457,3.674183,-9.217856
4.83417,6.134463,27.119193,-22.478765,-0.631344,3.786116,-9.361663
4.867539,3.464534,27.927564,-6.937148,-0.483347,3.978856,-9.584481
4.900734,-0.45701,24.863924,11.616782,-0.819295,4.163516,-9.451897
4.934315,-8.964211,16.209773,19.666076,-1.044358,4.209606,-9.951705
4.967527,4.113834,27.457086,-25.306119,0.138719,3.051818,-11.284874
5.000804,10.995764,13.955851,-13.67542,-0.573581,1.246376,-12.269076
5.034226,-2.947367,8.936527,-16.11056,1.113194,2.909209,-14.544097
5.067509,2.316174,5.870493,-11.742482,0.203215,0.392364,-12.604874
5.100829,1.412031,3.304116,-9.254967,-1.653405,-0.387276,-12.38026
5.134591,1.289174,3.352152,-8.246972,-5.639594,31.934104,-28.601705
5.16749,1.319552,3.079652,-9.135103,-11.945099,3.60415,-11.823589
5.200852,1.221984,2.868805,-9.418677,-5.008849,-1.832228,-4.487193
5.234276,1.293514,2.881974,-9.325599,-1.47952,2.635512,-7.053121
5.267497,1.488199,2.877634,-9.253621,-2.952755,4.093333,-7.297638
5.300368,1.339604,2.886912,-9.282053,-2.66978,5.862861,-7.477359
5.334148,1.434178,2.814185,-9.678158,0.218778,8.067551,-9.877183
5.367497,1.333768,2.728739,-9.36705,0.959361,8.843449,-11.456215
5.400815,1.399461,3.015605,-9.307642,-1.188913,10.246053,-13.614815
5.434116,1.414575,2.967569,-9.334577,-2.244794,15.037171,-16.81463
5.46747,1.343943,3.012013,-9.326497,-3.044935,20.697415,-13.536102
5.500915,1.336312,3.135469,-9.463121,-0.458656,20.692627,-0.204861
5.533625,1.14836,2.941531,-9.579393,5.577193,26.575091,7.500404
5.567581,1.501068,2.970263,-9.828549,5.392982,21.578812,9.347896
5.600904,-0.38129,-0.877955,-9.031101,-4.419854,-3.455555,-8.833423
5.634165,2.097545,0.665612,-10.493861,1.136837,17.387463,-22.906594
5.667515,4.550193,7.722175,-11.363586,-1.928898,4.444246,-11.815657
5.700822,5.150261,1.231711,-11.928039,2.739513,4.348025,-13.154064
5.734165,5.302897,16.491251,-18.280981,-0.531532,3.430864,-9.983728
5.767543,14.367369,21.003585,-34.843612,-0.861644,3.273439,-9.22444
5.800843,9.948712,-2.227585,-6.753536,-0.760934,3.233186,-9.274271
5.834157,7.230747,-2.243746,-2.03679,-0.868977,3.207896,-9.269932
5.867491,3.873358,-0.292103,-3.728504,-0.897409,3.277031,-9.184486
5.90083,4.262729,6.011157,-11.404289,-1.054683,3.399738,-9.167127
5.934183,5.809438,9.324252,-13.789897,-0.889627,3.511372,-9.159794
5.967512,1.037026,7.610242,-7.822136,-1.052738,3.341377,-9.072253
6.000826,-0.437406,7.487684,-10.275832,-1.029394,3.354995,-9.181193
6.034159,0.994377,6.496,-10.893408,-0.720381,3.535464,-9.185084
6.066798,2.480781,11.369123,-15.2766,-0.841442,3.480845,-9.253172
6.100825,5.382358,24.31234,-15.641279,-0.963701,3.674034,-9.436484
6.134159,4.18267,26.482312,-6.317327,-0.842191,3.647696,-9.602738
6.167458,-1.81053,24.210283,9.453394,-1.234554,3.97751,-9.598099
6.200345,-8.936377,24.855095,24.64754,-1.6344,3.918101,-10.118407
6.234252,0.448779,11.556775,-17.217618,-0.018256,4.044849,-10.718625
6.267487,12.31337,9.638951,-20.498839,-0.057463,-3.835498,-12.352576
6.300824,-2.810145,10.151628,-17.064533,2.36376,2.470306,-14.806571
6.334142,-1.854226,3.42847,-10.059597,-0.239279,0.990187,-12.793873
6.367481,0.588097,3.494163,-9.110412,-2.247487,2.372739,-12.211164
6.400822,1.184723,3.496258,-9.775425,-7.56894,23.861166,-29.25759
6.434171,1.355615,3.572576,-11.141366,-9.045916,3.005429,-9.741457
6.46753,1.401257,3.21852,-10.069474,-5.802106,-1.945658,-3.166145
6.500832,1.321198,3.345567,-9.359717,-2.52298,3.107934,-6.21108
6.534157,1.308328,3.392406,-9.294323,-3.384923,4.426588,-7.182562
6.567512,1.294561,3.34018,-9.210972,-2.743255,6.472656,-8.195795
6.600834,1.284685,3.314591,-9.176554,-0.380692,7.973275,-9.532256
6.63416,1.19879,3.258176,-9.220849,-0.086194,8.3194,-10.564044
6.667492,1.294711,3.304266,-9.116997,-1.057078,10.346014,-12.574048
6.700835,1.376565,3.409315,-9.338767,-3.910769,16.535695,-16.677257
6.734181,1.32838,3.38238,-9.173262,-1.271366,18.489434,-12.990654
6.767518,1.330475,3.400037,-9.180894,3.130231,22.033278,-4.081212
6.800729,1.352323,3.450617,-9.171915,5.438025,26.047151,4.859804
6.834159,1.654752,3.618366,-9.193015,5.404804,16.040377,5.308883
6.867271,-0.05028,0.821689,-9.299711,-1.735709,-5.197548,-18.970835
6.900914,1.217196,1.027,-10.159409,3.159561,11.845436,-17.411555
6.93417,1.961071,3.814997,-12.632858,-1.751571,10.235278,-13.817431
6.967474,4.708216,5.280151,-12.006602,0.7126,6.653125,-13.336329
7.000805,3.84328,12.034884,-12.203532,-0.974176,4.722133,-9.583733
7.034157,8.119926,6.822222,-39.166048,-0.46524,3.367116,-9.382014
7.06749,5.768586,0.953226,-11.934624,-0.950532,3.393004,-9.250777
7.100875,7.127942,-3.635426,-4.452925,-1.080272,3.256231,-9.120588
7.134244,11.807876,-0.316046,-9.188825,-0.73774,3.362028,-9.277264
7.167494,8.013529,3.18081,-9.96622,-0.974026,3.343772,-9.140939
7.20085,3.132775,6.852001,-8.886546,-1.161977,3.399588,-9.093353
7.234222,1.417867,10.781774,-12.22104,-1.132049,3.536362,-9.144531
7.267504,2.73682,7.572681,-8.664925,-0.992432,3.447773,-9.171915
7.300881,4.486146,5.425155,-8.183673,-0.871221,3.45331,-9.175357
7.33416,7.12465,17.875598,-22.588453,-0.93033,3.471267,-9.121935
7.367499,3.673585,25.090334,-17.730744,-1.0478,3.607443,-9.208728
7.400845,0.359442,21.556964,-3.071571,-0.799393,3.582303,-9.40057
7.434167,-2.478686,23.260051,5.539483,-0.775749,3.83894,-9.388898
7.467489,-5.369339,17.358731,15.298447,-0.918508,3.913013,-9.50951
7.499975,-0.677733,-4.930585,-8.338105,-1.505109,4.164114,-10.134269
7.534163,10.293938,8.137434,-21.644505,-0.537517,4.167107,-10.377439
7.567579,2.895591,8.897919,-13.925024,-0.630745,-0.523152,-11.947044
7.600823,-0.498161,5.334172,-10.538156,1.283936,7.486786,-15.320146
7.63351,1.396468,3.14325,-9.386803,-2.445315,2.881674,-12.640789
7.666664,1.343794,3.379536,-9.37977,-6.195517,-5.298557,-11.463847
7.700829,1.600282,3.226751,-10.229143,-4.715399,40.779798,-23.541978
7.734237,1.224678,3.048077,-9.295221,-11.5255,6.555857,-15.187712
7.767593,1.100325,3.046132,-9.352983,-3.854653,-2.244495,-4.572789
7.800805,1.125465,2.866411,-9.290283,0.419898,0.078862,-7.161463
7.834193,1.213155,2.926118,-9.313627,-2.273974,3.15148,-7.699579
7.867524,1.259694,3.136965,-9.780064,-2.924622,6.337678,-9.149918
7.901263,1.224828,3.044785,-9.148721,0.002694,8.361898,-10.447472
7.934154,1.280195,3.16016,-9.380817,0.759887,8.426394,-10.057502
7.967528,1.228868,3.126789,-9.314825,-0.412117,8.637541,-11.301335
8.000841,1.235901,3.078155,-9.348644,-1.634999,10.654428,-13.892402
8.034152,1.159733,3.173179,-9.344903,-0.128843,18.655088,-17.947427
8.067522,1.288575,3.236328,-9.975797,-1.62198,18.76747,-9.761209
8.101135,1.381504,3.39465,-9.527617,3.426375,21.928378,3.674931
8.134145,1.396917,3.434306,-9.324402,7.368868,24.385815,9.812088
8.167515,1.495981,2.920881,-9.532106,3.477552,1.736906,-11.950336
8.200214,0.910577,0.984351,-9.981783,-0.858202,13.974856,-22.754557
8.23416,2.345504,4.297895,-11.929386,0.510731,8.645771,-14.217127
8.267514,1.334815,6.113064,-10.421584,2.164136,6.603444,-12.861512
8.300816,3.040595,12.358562,-10.994417,-0.89681,3.185,-9.408351
8.33413,7.992729,3.205801,-34.320909,-0.671897,3.481144,-9.343107
8.36749,12.801356,5.967461,-24.016346,-0.819295,3.419491,-9.196756
8.400875,5.435481,-5.231817,-3.368463,-0.739386,3.190388,-9.209476
8.434162,5.013338,-2.269784,-5.450445,-0.968788,3.244259,-9.146775
8.467546,5.941872,1.512292,-9.747742,-0.836055,3.403778,-9.1993
8.500823,6.035399,6.341419,-11.439305,-0.922698,3.24815,-9.183737
8.534156,2.384111,8.013081,-9.257062,-0.96385,3.276582,-9.104576
8.567477,-0.618624,7.473917,-7.328464,-1.036577,3.331052,-9.135852
8.600921,2.449206,5.158342,-8.05528,-0.967591,3.5205,-9.167277
8.634165,4.877013,6.476397,-12.087559,-0.75869,3.549231,-9.218754
8.66742,6.592221,12.335667,-16.587172,-0.846381,3.472614,-9.301057
8.700823,1.883855,24.307252,-15.034627,-0.908333,3.611333,-9.411045
8.734253,4.832869,21.836946,-6.246246,-0.538864,3.845076,-9.533602
8.76749,-0.379345,23.295666,2.963978,-0.98914,3.953567,-9.68549
8.800599,-13.184292,22.725376,30.260348,-1.06471,4.015369,-9.569068
8.834157,3.614326,22.449285,-36.220776,-0.992282,4.134335,-10.238421
8.867501,11.871624,4.362242,-15.339749,-1.425349,3.439393,-11.94016
8.900823,-2.671276,9.496341,-17.69483,-0.726666,-0.969686,-13.320916
8.934171,1.113194,3.763969,-10.977058,-1.601329,3.146991,-13.363714
8.967513,1.432981,3.361579,-9.698509,-4.318845,-1.850185,-10.861983
9.000858,1.270918,3.038799,-9.505919,-1.581876,23.11804,-11.932978
9.034164,1.404698,2.914745,-9.1363,-7.703469,10.774591,-20.571266
9.067492,1.163624,3.008721,-9.190471,-3.395548,0.027385,-4.679036
9.100806,1.262687,2.894095,-9.074797,-4.708066,-2.707191,-7.010473
9.134215,1.355316,2.872696,-9.25392,-2.117448,3.480396,-7.894863
9.167492,1.392278,3.005728,-9.314525,-1.620783,6.120845,-7.680574
9.200833,1.42924,3.034759,-9.323953,-0.453119,6.60494,-7.797445
9.234217,1.406644,2.886463,-9.327245,1.432083,7.941102,-9.435437
9.267592,1.383449,2.995104,-9.310335,0.050879,8.466499,-10.445227
9.30082,1.427893,3.189041,-9.363907,-2.04113,9.629374,-12.994395
9.334158,1.343494,3.065136,-9.296269,-3.108683,14.148741,-16.017631
9.367483,1.384497,3.229444,-9.43828,-1.153448,15.35621,-10.574369
9.400825,1.470242,3.377441,-9.46327,2.028111,21.860291,-4.296099
9.433284,1.625721,3.412458,-9.335026,3.515711,22.18322,5.257705
9.467489,1.112895,2.320663,-9.188526,8.225723,22.462155,11.217684
9.500832,2.566975,3.001538,-10.269846,-1.032985,-2.602889,-7.461497
9.534397,2.082282,2.446812,-10.465279,-1.773867,21.103397,-21.247802
9.567491,3.523194,10.357088,-12.119882,-1.347684,3.921842,-11.30762
9.600826,4.362541,3.119906,-10.836843,1.534738,3.249497,-9.895439
9.634151,3.9395,19.55968,-18.465341,0.312754,4.137179,-10.385969
9.66749,11.206461,14.115071,-29.204916,-0.446684,3.376693,-9.428703
9.700826,8.120823,-3.110179,-6.166935,-0.615033,3.054213,-9.243146
9.734166,7.763027,-1.800504,-5.59515,-0.876608,3.112873,-9.221597
9.76751,5.891892,1.906152,-9.353133,-0.73355,2.997049,-9.1993
9.800808,5.121829,4.512184,-9.587773,-1.009042,3.234383,-9.068363
9.834157,3.400486,6.260911,-8.932038,-0.968639,3.443883,-9.11969
9.867528,1.019817,8.466648,-11.167554,-0.752554,3.354097,-9.168773
9.900833,1.950745,6.790049,-9.726492,-0.874214,3.280473,-9.109365
9.934156,2.28415,5.424557,-10.001835,-0.836354,3.467975,-9.254369
9.967514,1.939672,9.980586,-14.849219,-0.931378,3.420688,-9.097842
10.000838,2.880776,17.800328,-14.474513,-0.735196,3.489524,-9.317368
10.034157,5.58243,25.131186,-13.594014,-0.809868,3.605946,-9.312281
10.067546,2.495895,22.209258,3.615972,-0.703023,3.853904,-9.559491
10.100828,-5.468253,21.339683,14.339535,-1.318504,3.663858,-9.574455
10.134149,-7.777243,-7.210994,1.045705,-2.156505,4.033925,-10.358434
10.167535,9.897534,3.363973,-29.377005,-0.442494,4.03587,-10.981248
10.200871,0.370815,6.790198,-18.433467,-0.808222,-1.887596,-11.597328
10.234157,-1.951943,2.585082,-10.214179,0.489183,0.719483,-14.477057
10.267476,1.859763,2.65721,-9.700155,0.116422,5.71651,-14.195579
10.300835,1.715507,3.053464,-11.747271,-0.586301,5.337315,-12.698551
10.334157,1.338556,3.006177,-9.904867,-10.503588,15.44001,-23.643735
10.367472,1.141925,2.888408,-8.877867,-11.572188,-0.628949,-7.587945
10.40085,1.184125,2.938838,-9.715269,-3.106737,-1.483411,-4.159326
10.434208,1.273013,2.879879,-9.45519,-1.511992,-1.331074,-6.21946
10.467562,1.183825,2.898135,-9.31243,-4.111889,3.666551,-7.259479
10.500853,1.214502,2.793684,-9.305098,-2.768395,6.168881,-9.082279
10.534135,1.144619,3.012313,-9.420323,0.17583,7.757041,-10.520198
10.567557,1.325837,2.966522,-9.327544,-0.311706,7.954869,-10.429216
10.600837,1.248022,2.903372,-9.397577,-2.966971,8.753065,-11.472377
10.634158,1.299948,2.948116,-9.305696,-3.037602,10.794045,-13.6208
10.667842,1.197593,2.923125,-9.43813,-1.092394,15.636042,-12.930647
10.700495,1.187716,2.93794,-9.393986,-0.559216,20.476243,-7.52315
10.734158,1.250267,3.140257,-9.540187,2.698062,19.137537,-1.048997
10.767575,1.291419,3.17677,-9.412841,5.679698,19.90341,8.562869
10.800834,1.52965,3.239321,-9.541683,1.470841,1.096584,-7.808219
10.834156,-0.130788,-0.823485,-9.598398,-3.208943,17.857491,-20.014146
10.867581,1.638141,1.107657,-10.56988,-3.308007,9.888855,-15.429684
10.900929,3.494163,7.969085,-10.79614,3.055859,7.376649,-11.859204
10.934237,4.479412,2.527469,-10.111673,-0.932724,4.065051,-9.264993
10.96757,5.057483,15.815164,-17.587685,-0.871969,3.188442,-9.188526
11.000702,11.941806,18.637131,-33.742539,-0.72083,3.498203,-9.364805
11.034157,7.977615,-2.82496,-5.315916,-0.717837,3.119756,-9.182989
11.067492,6.752937,-3.141754,-2.014044,-0.848775,3.116913,-9.166379
11.10083,5.098784,0.095771,-7.261424,-0.930779,3.275983,-9.20768
11.134157,4.336653,5.655456,-11.727817,-1.195797,3.452113,-9.039332
11.167489,1.752618,5.41079,-8.163172,-1.057227,3.291097,-9.144082
11.20083,-0.935119,5.818866,-8.781497,-1.131151,3.44912,-9.036189
11.234205,1.651609,5.633159,-11.31151,-1.011886,3.321325,-9.1366
11.267499,2.131813,6.65118,-14.139163,-1.053636,3.375646,-9.045916
11.300826,2.953652,7.780835,-12.74509,-1.151054,3.311748,-9.130614
11.334135,1.267476,18.795453,-14.386523,-0.987643,3.533519,-9.210224
11.367502,3.624053,23.896632,-9.616505,-1.040617,3.669993,-9.279359
11.400822,2.587775,20.415039,1.618388,-0.776946,3.827418,-9.497389
11.434239,-7.61922,24.346309,13.324208,-1.175445,4.088545,-9.879427
11.46749,-6.051112,-11.531186,-17.994864,-1.592201,3.925284,-10.432208
11.500401,5.067359,7.130037,-22.012029,-0.909979,3.546987,-10.940097
11.534158,-0.980311,8.429387,-15.386737,-0.827077,-1.869789,-12.699748
11.567537,-1.31581,0.810915,-8.525757,-1.403352,2.58987,-13.931309
11.600804,1.054534,3.108683,-11.013721,-0.614284,1.455876,-11.354608
11.634159,1.120676,3.044037,-9.913396,-0.533178,3.734938,-9.506367
11.667498,1.180683,2.923874,-9.954698,-6.52952,22.59818,-23.865356
11.700825,1.19445,2.971759,-9.461774,-9.126574,5.575247,-12.867797
11.734158,1.06875,2.838278,-9.182091,-3.274786,0.255889,-5.581832
11.767568,1.107657,2.868356,-9.432145,-1.977382,2.92118,-6.263605
11.800824,1.192505,2.668433,-9.203789,-2.529415,3.766363,-6.326904
11.834159,1.259245,2.941232,-9.397577,-2.562935,5.732971,-7.19169
11.867496,1.213754,2.974752,-9.418527,0.760037,8.065156,-9.904867
11.900824,1.305036,3.03416,-9.420173,0.760186,8.504508,-10.769504
11.934157,1.247573,2.963978,-9.382762,-0.695241,9.826454,-11.349819
11.967502,1.247723,2.982983,-9.38396,-4.441403,11.9237,-13.592218
12.000229,1.18622,2.987173,-9.385755,0.228505,15.531142,-14.072273
12.034156,1.164372,2.965325,-9.424363,0.102056,16.651669,-7.914167
12.066841,1.177091,3.1015,-9.478235,4.638782,23.061774,-1.087904
12.100825,1.111398,3.070075,-9.410446,5.42321,15.843148,5.925262
12.134165,1.340352,3.241266,-9.57251,3.169587,17.866021,-0.136325
12.167491,1.84824,2.545427,-9.779466,-3.790007,0.564603,-13.336179
12.200826,2.504724,2.775877,-10.50269,-7.084696,17.795839,-19.658295
12.234157,2.976249,5.801058,-12.27566,0.581213,4.935224,-7.579864
12.267515,1.819958,5.401362,-10.229442,2.58149,5.420666,-12.801356
12.300909,3.023685,11.411173,-9.488859,-0.128244,3.860189,-9.717813
12.33416,3.246055,1.953888,-29.160322,-0.672346,3.430415,-9.027061
12.367515,10.498949,9.437831,-25.279931,-0.991235,3.126789,-9.212918
12.400825,8.551795,-5.411089,-3.645601,-0.87182,3.297083,-9.270081
12.434152,7.938558,-0.951879,-6.301913,-0.888729,3.402881,-9.194212
12.46749,3.493415,3.984243,-9.348943,-0.980311,3.308905,-9.163685
12.500833,2.87075,6.105732,-9.669478,-1.18592,3.297682,-9.152761
12.534173,-0.416307,6.401576,-8.102417,-0.941404,3.131428,-9.18688
12.56659,0.686113,5.236156,-9.323653,-1.10661,3.21882,-9.113854
12.600823,2.574308,5.078582,-9.574904,-0.977019,3.196822,-9.120139
12.634175,4.84918,6.870407,-12.021117,-0.97238,3.398242,-9.164134
12.667492,2.506819,9.877632,-10.592775,-1.115887,3.360831,-9.179248
12.700822,5.133501,23.957237,-16.512201,-1.070546,3.328658,-9.233119
12.734156,2.729637,21.710498,-5.698104,-0.917012,3.591131,-9.34176
12.767494,-3.06349,23.486311,8.510194,-0.996323,3.598015,-9.574305
12.800861,-6.905423,13.382569,27.871448,-1.066655,4.226515,-9.967866
12.834192,1.419513,30.188818,-33.354066,-2.131963,3.863182,-9.918634
12.867492,-4.976077,-0.08365,-9.522379,-0.95996,3.940248,-10.400634
12.900823,-1.867095,10.043286,-14.993475,-0.640921,0.697037,-12.70738
12.934181,1.547607,4.754156,-10.568832,-0.946641,3.643207,-14.255137
12.967473,1.226923,2.951857,-9.193015,0.284621,0.731604,-11.948391
13.000825,1.184574,2.906814,-9.375131,-2.390247,0.294647,-11.534628
13.034146,1.285882,2.909957,-9.319164,-7.467931,15.044204,-21.880193
13.06711,1.163923,2.884817,-9.434539,-9.036339,1.536983,-8.941914
13.100826,1.415622,3.024583,-9.616804,-6.090767,-1.117384,-5.543972
13.134143,1.323143,2.858031,-9.395781,-2.612167,2.71168,-7.173284
13.167494,1.07309,2.840971,-8.786286,-1.922014,3.818589,-6.964532
13.200829,1.310124,2.901577,-9.388598,-2.32171,5.9305,-8.124116
13.234138,1.290221,2.819273,-9.371539,-0.700479,7.323975,-9.190621
13.267264,0.9851,2.806254,-8.340649,-0.227906,7.998416,-10.212533
13.300829,1.067253,3.016503,-7.97971,-1.2365,7.956815,-10.475754
13.334132,1.188764,2.821967,-9.161291,-2.232822,10.024132,-12.61924
13.367522,1.249369,3.008123,-8.641282,0.011672,18.057714,-14.035311
13.400804,1.310573,2.967569,-9.365703,-0.556372,21.121354,-5.396574
13.434234,1.301445,3.018897,-9.454441,2.629227,21.792353,0.174484
13.467549,1.332271,3.081148,-9.693421,3.924536,21.816445,16.946316
13.500833,1.636346,3.211637,-9.377375,1.587562,-8.084011,-25.412365
13.534253,-0.17179,-0.239578,-9.280706,-0.93886,19.428892,-22.845091
13.567499,2.097096,1.459019,-11.154236,1.577686,5.417075,-10.240665
13.600825,2.343857,7.236583,-10.679867,-1.898969,2.898135,-9.791437
13.634151,2.926268,2.813437,-11.42883,-0.939159,3.516011,-9.244492
13.6675,4.223223,11.040357,-15.136085,-0.688058,3.435203,-9.292228
13.700823,8.200134,15.835067,-27.591765,-0.900252,3.170934,-9.145728
13.734452,9.671424,0.337744,-9.909805,-0.965945,3.268501,-9.146327
13.767117,9.00671,-3.133374,-4.117725,-0.692099,3.142951,-9.300908
13.800824,7.389818,1.83133,-9.84905,-0.914318,3.212834,-9.194961
13.834154,3.127388,4.757598,-9.402515,-0.878554,3.320876,-9.196906
13.867491,0.734597,6.069219,-8.909591,-0.903394,3.382529,-9.14483
13.900848,-0.951579,6.522637,-9.021075,-0.929732,3.233186,-9.142885
13.934159,1.453332,5.747935,-9.549165,-0.937663,3.245307,-9.116398
13.967498,4.692354,7.722025,-14.347915,-0.906088,3.291696,-9.079436
14.000836,6.031958,9.803109,-13.937445,-0.698234,3.439094,-9.361363
14.03443,2.052952,21.649444,-16.295219,-0.810765,3.577364,-9.370941
14.067489,0.346274,20.764306,-2.954251,-0.812561,3.459296,-9.448605
14.100814,-1.611804,22.251457,6.038093,-0.596926,3.76367,-9.548716
14.134166,-6.849906,24.460187,20.454545,-0.619971,3.989182,-9.654963
14.167491,3.409315,9.507265,-25.218877,-0.670849,4.09468,-10.216423
14.200831,12.899671,5.291075,-19.589908,-1.598187,4.005493,-10.838489
14.234158,-6.648935,9.114153,-16.585676,-1.264034,1.267925,-13.316277
14.266975,1.394523,4.047393,-11.075972,-0.283573,3.283466,-13.594762
14.300815,1.377912,3.254884,-9.678906,2.628478,0.856856,-11.972633
14.333294,1.295908,2.859527,-9.268585,-1.751571,4.579822,-7.600515
14.367496,1.288575,2.949911,-9.245091,-8.120823,12.614003,-21.626548
14.400824,1.180384,2.940334,-9.368546,-8.502263,1.918572,-8.522914
14.434167,0.989888,3.047628,-9.252423,-3.478301,-0.50699,-5.659347
14.46749,1.36205,2.629676,-10.098505,-1.331673,3.299477,-8.067401
14.500828,1.187417,2.955299,-9.09889,-2.255867,4.831522,-8.094935
14.534229,1.33676,2.988819,-9.456087,-0.519111,6.07281,-8.840007
14.567526,1.143871,2.87928,-9.269483,1.828487,7.553976,-10.577512
14.600853,1.249818,2.848304,-9.301207,1.07279,7.190942,-10.516457
14.634134,1.207918,2.886762,-9.319314,-0.329065,7.125099,-11.631447
14.667524,1.234704,2.853541,-9.287739,-2.319017,11.445291,-15.833122
14.700707,1.451986,2.947068,-9.754625,-3.57916,17.888318,-14.01062
14.733857,1.339454,2.960536,-9.602588,-2.121488,25.660473,-6.268842
14.767519,1.287977,3.175124,-9.67696,3.34886,25.043196,7.184208
14.800924,1.555987,3.161955,-10.443282,8.291566,19.503414,13.590123
14.833476,2.291333,3.037153,-9.673219,-3.138611,-3.404078,-13.317025
14.86753,-1.100774,-2.858779,-9.332782,-1.807388,12.775168,-15.526204
14.900814,2.677711,4.639081,-11.315102,2.986724,6.564986,-13.880281
14.934158,2.043674,6.727797,-11.464296,-1.13564,3.812603,-9.860123
14.967515,3.053913,6.756229,-9.826753,-0.891273,2.916541,-9.420622
15.000825,6.206741,6.400678,-28.362726,-1.208367,3.199516,-9.227433
15.034251,9.574156,2.05355,-18.51607,-1.354418,2.991363,-9.151863
15.067579,8.948648,-4.476419,-6.806061,-1.231861,3.051968,-9.243146
15.100825,6.241907,-0.954572,-7.584802,-1.14402,2.988819,-9.238207
15.134158,5.198895,2.801765,-10.427869,-1.301295,2.946769,-9.149619
15.167476,5.467504,5.631064,-11.338147,-1.239193,3.102847,-9.225338
15.200826,-0.804181,6.260462,-7.958461,-1.246675,3.016802,-9.191668
15.234169,0.450276,4.983858,-7.98375,-1.411732,3.022488,-9.121486
15.267495,2.373337,3.446876,-8.047049,-1.288875,3.191435,-9.158298
15.300831,4.484051,6.892105,-12.646625,-1.196246,3.317434,-9.176554
15.334161,3.382828,15.084159,-19.263686,-1.181431,3.205801,-9.225338
15.367492,0.749262,23.512049,-9.96652,-1.172602,3.364123,-9.316321
15.400781,0.596626,21.894409,-2.989118,-1.122472,3.514365,-9.44681
15.434349,-2.325751,24.669089,7.629246,-1.356364,3.693338,-9.575054
15.46749,-4.770468,12.082471,21.061646,-1.6763,3.863931,-9.878829
15.500835,8.305333,25.254941,-25.645659,-2.487964,3.886826,-10.445676
15.534158,-1.782547,-2.985526,-8.447494,-1.764739,3.570181,-11.208855
15.567497,1.024456,2.696117,-9.107719,-0.116871,-1.138334,-13.810398
15.600933,1.388088,2.924322,-9.926266,-2.769592,2.723801,-13.463825
15.634168,1.120077,3.101799,-9.394435,-3.778784,-1.692013,-10.740623
15.667491,1.201184,2.952156,-9.436335,-0.993928,9.922525,-9.674417
15.700803,1.299799,3.078305,-9.679953,-10.2052,13.216315,-22.200579
15.734169,1.149108,2.889905,-9.228481,-7.288509,-1.441511,-4.786779
15.767491,1.166467,2.905767,-8.957328,-2.944973,-0.952178,-5.513445
15.800811,1.19026,2.885715,-9.300758,-0.825281,1.487601,-7.193336
15.834157,1.140429,2.773183,-9.315722,-3.248748,4.653447,-8.245476
15.867508,1.207619,2.714673,-9.273074,-1.472786,6.034202,-9.647032
15.900807,1.355615,2.894095,-9.387701,0.29764,7.881844,-10.552372
15.93416,1.270768,2.762409,-9.385306,-2.488562,8.744086,-10.953415
15.967553,1.235602,2.930607,-9.520284,-4.461904,10.794494,-14.148591
16.000888,1.205075,2.92537,-9.405209,-4.572939,17.12873,-15.042408
16.034184,1.183376,3.00917,-9.501429,-0.87586,27.69861,-6.59237
16.067493,1.254457,3.083094,-9.519386,1.717452,20.867709,4.018512
16.100812,1.549253,3.253537,-9.487213,3.279425,26.557583,17.3089
16.134211,1.998033,2.696416,-9.939883,5.282995,-5.744493,-29.393167
16.167528,2.821368,2.356128,-10.878294,-2.200799,12.062718,-17.054208
16.201113,1.834174,6.539846,-11.754902,3.110329,8.073536,-11.734701
16.234223,1.668369,4.249411,-11.17773,-1.258647,4.18671,-9.499185
16.267491,4.652549,17.986783,-14.292547,-0.817499,3.384026,-9.36286
16.300801,9.811789,12.905806,-30.620838,-1.060669,3.415002,-9.136001
16.334163,9.113255,1.716704,-16.661695,-0.864487,3.155521,-9.14498
16.367491,8.095833,-4.671254,-2.825558,-0.811514,3.179613,-9.235813
16.400867,6.728845,-1.36205,-6.368056,-1.150156,3.194278,-9.111909
16.434158,4.926395,3.059151,-10.371004,-1.028646,3.319529,-9.135552
16.46753,2.083928,6.290241,-10.958054,-1.132647,3.380733,-9.063424
16.500799,-2.866411,6.190729,-8.840157,-1.087006,3.384026,-9.112208
16.53345,-1.522168,4.749817,-8.662082,-1.171854,3.371156,-9.083626
16.567496,0.293749,5.225382,-12.960725,-0.996173,3.471567,-9.146177
16.600823,3.999357,8.598184,-16.529261,-0.974774,3.394201,-9.170868
16.634167,3.296335,15.891482,-17.926626,-1.002458,3.684958,-9.250927
16.66749,-4.78633,20.539692,-2.922227,-0.979563,3.657723,-9.373335
16.700813,4.007139,24.596662,2.554854,-1.08955,3.967035,-9.50098
16.73417,-7.697184,23.580736,21.326215,-1.065458,3.989631,-9.884366
16.76751,-7.362283,13.680358,-25.892869,-0.932575,4.148851,-10.291694
16.800835,6.44153,15.612249,-9.158897,-2.352986,3.431612,-10.923187
16.83416,-1.546261,5.467953,-10.64545,-2.139296,1.343794,-13.682752
16.867481,0.941553,3.006327,-9.498885,-2.424665,3.863631,-13.372992
16.900838,1.242485,3.253238,-9.460876,-3.441339,-1.028496,-10.389859
16.934157,1.399012,3.140257,-9.237908,-1.259096,7.387573,-8.16407
16.967499,1.400359,3.043588,-9.436634,-8.681685,12.864804,-20.764455
17.000834,1.7812,2.826157,-10.930819,-8.251162,-0.064646,-6.386761
17.034183,1.39961,2.850698,-9.506218,-4.811769,-0.181367,-5.787291
17.06749,1.407392,2.983581,-9.292378,-3.32761,2.302706,-6.851253
17.100409,1.14013,2.995852,-8.907796,-2.780516,4.369574,-8.410083
17.134135,1.538329,3.00064,-9.583583,-2.229081,6.675273,-9.240751
17.16749,1.460515,3.066334,-9.402216,-0.308115,6.921735,-8.829532
17.200828,1.446898,3.108832,-9.358221,0.466138,7.312452,-10.457049
17.23416,1.349779,3.044037,-9.190471,-2.392342,9.50532,-13.322412
17.267497,1.480867,3.154024,-9.525522,-4.959018,14.353602,-16.37034
17.30085,1.481166,3.182756,-9.567123,-3.044635,14.275787,-12.339408
17.334191,1.636944,3.309803,-9.463869,3.780729,23.166973,-0.983304
17.367559,1.640536,3.492666,-9.326048,3.720423,23.859371,6.035699
17.400813,1.891337,3.157317,-9.583733,5.764396,16.588968,12.896678
17.43416,2.275171,2.20858,-10.332097,-0.587498,17.364717,-20.418182
17.467491,2.938239,3.503441,-11.14825,-2.307644,9.00656,-12.276857
17.500832,1.58442,8.147909,-10.764715,-0.013318,4.245969,-10.350952
17.534179,3.656525,8.281091,-10.520947,-1.653106,3.356342,-9.196457
17.5675,5.798515,0.555325,-30.356119,-0.546795,3.74257,-9.512353
17.600824,11.422845,7.960406,-25.871919,-0.912373,3.193979,-9.262898
17.634188,7.211593,-3.428918,-5.271173,-1.023408,2.874042,-9.110263
17.667498,7.996171,-1.700991,-6.109024,-0.761383,3.461541,-9.361513
17.700824,5.685085,1.157937,-8.346186,-1.228269,3.248898,-9.12373
17.734157,3.467227,4.966949,-9.798171,-1.265231,3.322971,-9.08602
17.767366,-0.26816,6.724804,-9.988966,-1.082517,3.518255,-9.105324
17.800823,-1.278699,6.423723,-10.367114,-1.223331,3.242314,-9.164882
17.834222,-1.055881,4.43841,-9.164134,-0.999465,3.51631,-9.171167
17.867496,1.467698,8.305184,-16.868501,-1.029693,3.450467,-9.205136
17.900802,5.111653,14.177771,-20.866063,-1.01832,3.535913,-9.218006
17.934136,1.488798,19.627169,-6.994611,-0.996772,3.592179,-9.345801
17.967499,0.817799,21.688201,1.757107,-1.225426,3.828914,-9.34625
18.000823,0.669503,22.307424,4.661527,-1.015327,4.002051,-9.598248
18.034261,-10.513315,1.031788,1.847193,-0.977767,4.088395,-9.964275
18.067515,8.936976,16.539137,-17.107481,-1.246825,3.873059,-10.385221
18.100917,12.512844,4.718092,-20.483575,-2.031104,2.401919,-12.578986
18.134156,-0.586301,4.391422,-11.89003,1.903758,3.975564,-14.644807
18.167526,1.702488,4.080614,-9.634013,3.221513,2.553956,-12.237202
18.20079,1.15255,3.060797,-8.225125,-3.032514,-0.103254,-11.589397
18.234157,1.713112,3.644255,-9.880475,-9.242547,33.219238,-25.277387
18.267536,1.135491,3.086835,-9.296119,-12.681641,2.768095,-11.239083
18.300887,1.260443,2.848603,-9.338318,-2.387404,-1.348133,-3.89775
18.334156,1.260443,2.914596,-9.335625,-0.651845,2.548719,-7.157572
18.367578,1.383748,2.969515,-9.312131,-2.41838,5.223287,-8.236198
18.400057,1.321048,2.864465,-9.184635,-3.862434,6.359227,-7.584952
18.433691,1.275856,2.998396,-8.987555,-0.490679,7.118216,-8.643676
18.467554,1.368934,2.852943,-9.376926,0.101009,8.652355,-10.911215
18.500833,1.341399,3.029821,-8.967054,-1.520372,8.564215,-11.029583
18.53416,1.369682,3.057056,-9.335176,-2.327846,9.889453,-13.287545
18.567477,1.435974,2.940783,-9.432145,-1.152849,15.545957,-14.381136
18.600865,1.355017,3.035208,-9.205436,0.556223,25.76238,-11.003545
18.634017,1.233806,3.259672,-8.749623,1.425948,22.951337,3.792252
18.667468,1.571251,3.187095,-9.603635,5.841312,23.730977,19.278202
18.70058,1.709671,2.447111,-9.669927,2.494398,-9.669927,-28.167442
18.734157,1.341399,1.280644,-10.371603,-1.025353,16.503971,-18.366876
18.767476,2.156953,2.462824,-10.834299,1.942814,3.372802,-8.824744
18.800822,2.418978,6.50857,-11.26542,-1.662084,3.3529,-9.210972
18.834157,3.548782,5.075739,-9.019729,-0.999166,2.877933,-9.243295
18.867478,2.92118,3.105091,-26.004951,-0.920005,3.372952,-9.34176
18.90084,8.589954,2.978493,-19.369783,-0.962503,3.08055,-9.242547
18.934221,5.113599,-6.146434,-2.672024,-1.16078,3.038051,-9.180146
18.967784,6.354438,-2.456988,-4.81551,-0.927487,2.985826,-9.294922
19.000825,6.54628,2.679357,-11.280235,-1.131899,3.098208,-9.190621
19.034158,4.973832,4.832719,-11.187307,-1.009192,3.128286,-9.256314
19.066878,1.587412,6.996706,-11.028236,-1.167664,3.018149,-9.183588
19.100921,-1.119329,5.59904,-7.739982,-1.195498,3.206848,-9.172514
19.134181,1.31596,3.986338,-7.597971,-1.033434,3.34467,-9.261402
19.167551,4.482704,6.983986,-14.456706,-1.11469,3.224506,-9.144082
19.200383,2.375582,19.451638,-14.820488,-1.095835,3.364572,-9.226236
19.234157,-0.352409,27.713724,-10.9594,-1.049147,3.477104,-9.325
19.267761,0.227457,23.113401,-0.423789,-0.873017,3.512569,-9.462821
19.300824,-4.022103,20.719562,19.181083,-1.014878,3.735387,-9.636407
19.334196,-6.368953,-1.289024,-20.90931,-1.453632,4.071934,-10.174673
19.367474,11.633692,6.731538,-12.97554,-2.226088,3.021441,-10.531272
19.400823,-4.996129,6.636066,-12.347189,-3.393303,3.048526,-11.783185
19.434156,1.987558,1.019368,-7.235236,0.289409,0.476014,-16.603484
19.4675,1.308179,3.70501,-9.648229,0.657531,2.857432,-12.453436
19.500851,1.044059,3.106588,-9.360316,-3.878895,-0.817799,-11.093181
19.534154,0.947838,2.966821,-8.349478,-5.638995,34.829396,-17.066928
19.567492,0.884539,2.846957,-7.75764,-10.460042,8.693208,-16.825554
19.600822,0.926739,2.985826,-8.8222,-5.812731,-1.863953,-3.270746
19.634163,0.98495,2.771238,-8.821601,-1.993693,1.293514,-5.882015
19.667492,1.199388,3.06379,-9.223692,-2.316772,3.768608,-7.480052
19.700277,1.174248,3.11826,-9.44262,-4.476569,5.420068,-7.534822
19.733841,1.176194,2.979241,-9.205436,-1.740347,6.414894,-9.0109
19.76749,1.213305,3.022039,-9.548567,-0.22626,7.282374,-10.426522
19.800662,1.065458,3.061994,-9.311233,-0.244517,9.188526,-13.110817
19.834158,1.12337,3.046581,-9.228929,-4.276795,11.73515,-16.002966
19.866743,1.231711,3.186347,-9.405209,-4.444994,18.214988,-14.465684
19.900845,1.224977,3.051968,-9.27053,-1.829834,20.556452,-6.247294
19.934165,1.128457,3.338833,-9.350589,3.990528,21.329956,4.892726
19.967493,1.430287,3.321475,-9.496042,9.224141,25.422541,10.149683
20.000919,1.821155,3.149086,-9.395033,-1.203129,-7.536168,-15.64936
20.034165,-0.738189,-1.539676,-9.158747,-3.092072,16.533301,-20.287843
20.067499,2.608127,3.438196,-11.161418,-2.157702,4.491533,-13.88058
20.100822,2.165932,9.933897,-12.029796,2.718114,7.033667,-13.654021
20.134168,5.507908,2.945721,-8.664476,-0.810017,3.310701,-9.816577
20.167471,5.710824,0.492924,-32.691597,-1.0689,3.897899,-9.436784
20.200861,9.98732,8.217942,-26.279396,-1.183676,3.373251,-9.151863
20.234163,5.705437,-5.634656,-3.946982,-1.339753,3.071272,-9.14468
20.267494,8.263732,-2.244195,-6.690686,-1.014729,3.268352,-9.301656
20.300847,5.673114,3.876501,-12.497281,-1.080721,3.272841,-9.154258
20.334235,3.649492,4.934775,-9.796076,-1.343644,3.251292,-9.144381
20.366559,1.351874,7.600515,-9.620695,-1.20283,3.585295,-9.103529
20.400805,1.235003,7.23374,-10.091771,-1.131151,3.213433,-9.130015
20.43416,5.539782,6.118601,-10.081296,-1.155393,3.350057,-9.078239
20.46749,10.932315,8.058572,-12.634204,-1.06052,3.469771,-9.13241
20.500868,9.600643,21.603952,-21.016903,-0.846231,3.350057,-9.265143
20.534155,5.147717,27.361764,-2.666338,-1.118431,3.382978,-9.075695
20.56749,-5.079331,27.216012,22.315504,-1.007845,3.40333,-9.347596
20.600011,-4.666017,25.315097,18.190297,-0.816153,3.364273,-9.54288
20.634156,9.564579,17.470215,-16.766744,-0.906537,3.604001,-10.179162
20.667491,8.874276,5.79642,-14.837846,-1.624524,3.658471,-10.872757
20.700843,-7.51896,6.238016,-17.251138,-2.18374,3.527384,-11.708214
20.734012,0.87182,3.686753,-9.95814,-1.166167,0.21369,-13.550917
20.767532,1.52142,2.957094,-9.434689,0.818098,1.908546,-10.658618
20.800832,1.743041,2.825558,-9.563681,-1.918572,2.440527,-6.453352
20.834194,1.424302,3.13083,-9.465665,-9.597201,20.87564,-16.502624
20.867492,1.543268,2.87928,-9.135702,-16.246884,0.729958,-9.805055
20.900832,1.581427,2.90008,-9.407453,-2.760613,-0.5031,-4.144511
20.934159,1.704433,3.060198,-9.304948,-1.16527,-1.590106,-4.038115
20.967502,1.41248,2.945721,-9.302554,-1.213305,1.95284,-8.769226
21.000825,1.39991,2.897686,-9.217856,-4.148551,4.485547,-12.232563
21.033562,1.441211,2.896639,-9.400121,0.478857,2.633716,-12.37203
21.067589,1.386592,2.869553,-9.270081,1.480717,4.088994,-13.8306
21.100825,1.807388,2.986125,-9.520733,24.460935,68.387725,-13.862324
21.134284,1.479071,3.048376,-9.166828,8.393174,12.005704,-5.54457
21.167512,1.572747,3.045234,-9.320361,-1.125165,-3.510773,-8.935929
21.200833,1.585766,2.902624,-9.305846,-1.116037,4.379151,-9.584481
21.234143,1.363696,2.934199,-9.390394,-1.690965,5.757063,-8.742141
21.267514,1.382551,3.089528,-9.361663,-0.514921,3.33599,-9.204089
21.300853,1.371178,2.89185,-9.440525,-1.087605,3.504787,-9.348644
21.334153,1.547757,2.3889,-8.928446,-1.051691,3.502692,-9.181792
21.36753,1.534588,3.055859,-9.186281,-1.069199,3.191734,-9.225937
21.40083,1.570652,3.191734,-9.417031,-1.201334,3.280024,-9.212169
21.434225,1.460814,3.09716,-9.486615,-1.11484,3.265508,-9.110113
21.467396,1.596541,1.786288,-8.491489,-0.932874,3.413954,-9.334877
21.500868,1.536683,3.10569,-9.326347,-0.935717,3.172281,-9.319015
21.534228,1.155543,2.659155,-9.386653,-1.241588,2.870601,-9.055643
21.567499,1.412031,2.675167,-9.273074,-0.933173,3.231839,-9.234466
21.600816,1.480717,3.139659,-9.527467,-0.952328,3.243511,-9.207531
21.634233,1.330176,2.995852,-9.327694,-1.091196,3.186497,-9.131961
21.667584,1.313566,3.112124,-9.616355,-1.068301,3.469921,-9.14064
21.70042,1.59699,2.726644,-9.22878,-0.728462,3.374149,-9.427805
21.734343,1.457971,2.985975,-9.258708,-0.866882,3.335841,-9.311083
21.767483,1.350827,3.039548,-9.473296,-1.308179,3.304565,-9.085123
21.800823,1.284236,2.701953,-9.304798,-1.572598,2.882422,-8.892532
21.834246,1.362349,2.880178,-9.336223,-1.239343,3.311898,-9.137498
21.867486,1.347385,2.891401,-9.374682,-1.176194,2.802962,-9.096795
21.900861,1.470392,3.008721,-9.384857,-1.011736,3.070374,-9.177452
21.934158,1.522916,2.978792,-9.351188,-1.002608,3.150134,-9.328292
21.967499,1.460216,2.962032,-9.370641,-1.073539,3.138162,-9.191369
22.000823,1.339454,2.760763,-9.130614,-1.063961,3.246204,-9.193614
22.034157,1.870387,2.770041,-10.125291,-1.281542,3.121851,-9.081681
22.0675,1.475479,2.847107,-9.6813,-1.106161,2.993308,-9.055942
22.100889,1.38704,2.913099,-9.38396,-1.074736,3.157466,-9.092904
22.134142,1.383898,2.894992,-9.399223,-1.079375,3.24396,-9.198253
22.167491,1.38704,2.90876,-9.406256,-1.116336,3.141454,-9.127771
22.200848,1.401406,2.916242,-9.390245,-1.038223,3.180661,-9.179697
22.23415,1.372974,2.848753,-9.42556,-1.130104,3.220316,-9.156951
22.267491,1.337359,2.835584,-9.431097,-1.159583,3.244259,-9.118194
22.30039,1.340651,2.865962,-9.352235,-1.061268,3.269848,-9.181642
22.334163,1.339903,2.87913,-9.463869,-1.179186,3.117661,-9.135552
22.36732,1.333319,2.878681,-9.519237,-1.126961,3.248599,-9.204388
22.400831,1.329428,2.873444,-9.383211,-1.166018,3.162255,-9.130464
22.434188,1.418017,2.875988,-9.382014,-1.105412,3.252489,-9.208279
22.467468,1.368036,2.881076,-9.349242,-1.157488,3.142203,-9.148721
22.500824,1.312219,2.808648,-9.338917,-1.182778,3.184851,-9.147075
22.534155,1.313865,2.868955,-9.380967,-1.133994,3.196523,-9.179248
22.567498,1.306981,2.905767,-9.419874,-1.147163,3.129483,-9.162338
22.600823,1.348133,2.978493,-9.386952,-1.137286,3.1223,-9.138844
22.634154,1.362499,2.892299,-9.350589,-1.102719,3.176172,-9.194961
22.667475,1.340651,2.889306,-9.379321,-1.120526,3.146093,-9.185084
22.700822,1.358758,2.891401,-9.366152,-1.116336,3.136067,-9.179248
22.734184,1.339304,2.876736,-9.37962,-1.147761,3.184851,-9.218006
22.767494,1.351575,2.8709,-9.364356,-1.094937,3.1223,-9.171018
22.800829,1.353969,2.907114,-9.395332,-1.147462,3.164499,-9.167277
22.834172,1.371029,2.873893,-9.351637,-1.079075,3.206848,-9.252423
22.867558,1.352473,2.870152,-9.381116,-1.150754,3.059151,-9.132709
22.900861,1.334217,2.890802,-9.386503,-1.133845,3.236927,-9.190022
22.934144,1.338855,2.793684,-9.329938,-1.159583,3.199067,-9.176854
22.967409,1.334067,2.849651,-9.353732,-1.209265,3.179613,-9.146925
22.999953,1.323592,2.854589,-9.361513,-1.19864,3.195924,-9.149319
23.034248,1.323592,2.858928,-9.365703,-1.115289,3.173478,-9.184486
23.067491,1.548804,2.934648,-9.09889,-1.501667,3.116015,-9.231773
23.100999,1.2992,2.85429,-9.50517,-1.284834,3.225853,-9.422867
23.134433,1.285583,2.796677,-9.344603,-1.173051,3.08444,-9.356575
23.167572,1.116486,2.720359,-9.253172,-1.560776,3.258774,-8.525159