time_tick,acc_X_value,acc_Y_value,acc_Z_value,acc_A_value,acc_B_value,acc_C_value
0.02105,1.077729,3.114369,-9.202293,-1.58412,2.955448,-9.559191
0.054414,1.087306,3.363674,-9.386803,0.415708,2.957842,-9.478684
0.087704,0.591688,3.235131,-9.304649,-1.081769,3.263713,-9.288936
0.121076,0.953076,3.258475,-9.281304,-0.143059,3.307109,-9.336523
0.154407,1.099427,3.252789,-9.284597,-1.077729,3.207447,-9.257661
0.187706,0.758989,3.307109,-9.30854,0.16341,3.122001,-9.324252
0.221143,0.609945,3.252489,-9.22025,-0.996472,3.081896,-9.110562
0.254438,0.958912,3.23543,-9.227732,-0.193339,3.077108,-9.291181
0.287735,0.786972,3.276432,-9.310784,-0.672346,3.14759,-9.197953
0.321132,0.7542,3.335392,-9.287889,-0.41077,3.165996,-9.252723
0.354441,1.208666,3.184552,-9.225338,-0.537966,3.238423,-9.17431
0.387735,0.713647,3.387617,-9.373485,-0.181367,3.160459,-9.317219
0.421054,0.658279,3.248449,-9.21621,-0.785775,3.214779,-9.169521
0.454439,0.615033,3.40737,-9.410446,-0.373509,3.115716,-9.242397
0.487788,1.054833,3.07606,-9.085123,-0.672196,3.230492,-9.178949
0.520946,0.687759,3.34048,-9.320361,-0.20097,3.284064,-9.180295
0.554455,1.175146,3.207597,-9.293426,-0.504746,3.280024,-9.161291
0.587765,0.681773,3.347812,-9.298813,-0.067339,3.41141,-9.151265
0.621041,0.795352,3.300674,-9.176105,-0.67878,3.224955,-9.162039
0.654409,1.012634,3.360083,-9.272775,-0.463893,3.299028,-9.157999
0.687727,1.168562,3.225853,-9.270381,-0.444739,3.245307,-9.122833
0.721038,0.761982,3.311449,-9.308091,-0.465988,3.213582,-9.271578
0.754458,0.708559,3.011864,-9.012546,-0.509983,3.183504,-9.272625
0.787746,0.54904,3.34452,-9.473296,-0.374107,3.219718,-9.110263
0.821069,1.107807,3.35724,-9.381565,-0.454915,3.41141,-9.050256
0.854386,0.952777,3.375646,-9.369295,0.055817,3.084291,-9.425411
0.887806,0.798944,3.281221,-9.344903,-0.818547,3.256979,-9.161141
0.920855,0.984501,3.338384,-9.17835,-0.421245,3.300674,-9.241948
0.954425,0.51148,3.242763,-9.306145,-0.651096,2.997797,-9.338917
0.987747,1.199987,3.182606,-9.170269,-0.66651,3.018149,-9.191519
1.020803,0.666659,3.268501,-9.359418,-0.103403,3.075761,-9.340413
1.054389,1.025802,3.064239,-9.285345,-0.680576,3.030569,-9.380069
1.087724,0.775599,3.096561,-9.049508,-0.071529,3.293492,-9.446061
1.121054,0.656783,3.246953,-9.339067,-0.913869,3.358287,-9.23716
1.154405,1.084462,3.404676,-9.346698,-0.54919,3.590832,-9.418078
1.187735,0.751208,3.206399,-9.326048,-0.4193,3.882337,-9.490206
1.221054,0.256338,3.264012,-9.365703,-0.794454,3.401534,-10.267003
1.254405,1.243832,3.162255,-9.14064,-1.007995,3.219718,-11.134034
1.287837,0.122558,3.325066,-9.578645,0.080957,1.614647,-12.165972
1.321144,1.262538,3.091773,-9.234017,-1.887895,1.843152,-10.975712
1.354381,0.617576,3.204903,-9.383511,-1.407542,2.755675,-10.668345
1.387776,1.091346,3.237675,-9.345052,-2.359121,2.468959,-10.949823
1.421021,0.611441,3.274936,-9.326197,-2.030056,4.871327,-10.891163
1.454375,0.839347,3.232886,-9.297167,0.52794,0.969986,-8.449888
1.487702,0.685814,3.334045,-9.397427,1.199239,3.555367,-9.160393
1.520617,0.778143,3.237226,-9.323055,-0.94724,2.749689,-8.463805
1.5544,0.919556,3.199965,-9.250628,0.144854,3.048676,-8.257298
1.587707,0.641819,3.143849,-9.335326,-0.213092,2.035892,-8.433876
1.621336,1.019966,3.292294,-9.325748,0.521206,3.511372,-9.886012
1.654394,0.227607,3.302171,-9.492451,1.141925,4.615288,-9.007608
1.687732,0.920005,3.07606,-9.036489,1.458271,3.811256,-7.570586
1.720219,0.722177,3.102398,-9.120438,0.613237,4.55154,-6.47086
1.753629,0.085745,3.300974,-9.526869,-1.03927,8.37357,-7.02409
1.786932,0.411219,3.258475,-9.118194,-2.645987,8.519472,-6.170527
1.820225,1.558232,3.781477,-9.553954,1.901363,9.125077,-4.452177
1.853637,1.034631,3.530227,-9.52627,1.892983,11.606906,-2.693872
1.886941,1.098529,4.300738,-9.881822,2.906216,4.825985,-36.289013
1.92042,1.877121,3.750651,-9.432594,-2.360617,-7.829618,-3.960301
1.954416,0.768865,1.81472,-13.1807,4.260185,10.57407,-6.967675
1.987706,-0.357946,7.363032,-11.908137,-1.7812,0.694942,-9.298813
2.020589,-3.24396,-0.599919,-24.900287,-0.790713,3.029521,-9.411045
2.054409,-0.599919,6.105283,-17.407515,-0.887233,3.647846,-9.436035
2.087709,2.582688,-1.874128,-14.028577,-0.490829,3.202509,-9.167875
2.12104,5.007203,-4.43422,-9.879577,0.395806,2.677412,-9.644039
2.154378,4.098571,-1.964662,-10.180359,-0.799692,2.982234,-9.146925
2.187731,-0.330861,0.952777,-9.122683,-0.940656,2.484372,-9.009254
2.221041,-1.603424,4.427785,-11.354159,-0.920005,3.006776,-9.258858
2.254408,-0.509684,8.039118,-11.356703,-0.526594,2.736371,-9.081082
2.287732,3.477702,8.192053,-10.443581,-0.688507,3.442237,-9.576251
2.321039,4.876115,10.102246,-10.206397,-0.435611,3.051369,-9.237309
2.354371,1.972593,9.609023,-12.46421,-0.52405,2.984928,-9.210673
2.387745,0.912373,11.201523,-9.012995,-0.602014,2.965325,-9.128669
2.421047,-0.100859,6.688292,-4.021056,-0.822587,3.357688,-9.31692
2.454336,-0.290906,5.474538,-0.195883,-0.469729,2.961434,-9.421221
2.487705,3.181559,15.967651,-14.912967,-0.550686,3.64201,-9.448755
2.520357,1.783445,8.359205,1.352922,0.46943,3.454507,-9.622041
2.553653,2.09979,14.975668,3.570331,-0.652892,3.30666,-9.84471
2.586824,-1.115139,3.481593,-24.906572,-1.334217,3.241566,-10.291993
2.62104,0.716042,9.956344,-18.420747,-2.54812,1.305934,-10.433106
2.654376,0.260229,4.63968,-10.018146,-2.367202,4.437512,-14.14485
2.687706,0.330561,3.788062,-12.463312,-0.563106,5.239448,-13.401873
2.721061,-0.009428,3.265059,-8.446746,-0.556372,3.958655,-22.854668
2.754374,1.821903,3.564645,-9.797273,-1.955833,-9.710181,-14.645106
2.787706,0.395806,2.765102,-9.082429,-2.505622,-8.506603,-12.776814
2.82106,0.824084,3.319978,-9.523576,-3.639616,-2.029158,-11.861598
2.854377,1.007845,3.263114,-9.322007,1.578135,2.527769,-12.172107
2.887743,-0.139617,3.156269,-9.380667,5.156397,6.061736,-11.629801
2.921075,1.179486,3.090426,-9.223542,2.625037,5.827845,-10.731794
2.954386,0.073325,3.488027,-9.497987,0.07123,8.866943,-9.372287
2.987716,0.817499,3.186347,-9.15725,-3.51616,7.442492,-4.974431
3.020212,0.265167,3.259223,-9.315273,-1.415323,4.302534,-5.013637
3.054374,0.536919,3.194877,-9.124628,4.757598,16.917285,-9.159794
3.087684,0.387276,3.719824,-9.388598,0.231049,21.804623,-8.702037
3.121045,0.535273,3.505536,-8.904803,0.863589,12.613254,-3.554619
3.154377,0.030976,4.919213,-9.236861,6.716125,15.214348,-0.069434
3.187713,0.925093,4.185663,-9.111909,2.971161,28.205301,22.694251
3.221065,3.606096,3.963742,-11.257639,2.196758,21.309904,-23.477931
3.254419,1.704583,7.574627,-13.384963,-4.762686,-4.88255,-5.287634
3.287797,0.59094,4.299541,-10.408714,-2.811641,1.040467,-10.500745
3.321048,-2.750437,7.169244,-7.618322,1.905853,2.163388,-11.100963
3.354464,7.039653,10.891463,-35.846968,0.724272,4.024647,-7.550534
3.387709,11.056519,12.136193,-27.991162,-1.379558,2.731582,-9.738164
3.42106,0.919406,0.251999,-8.149705,-0.076916,2.748193,-9.499185
3.454411,0.305272,-4.372417,-1.982021,-0.233144,3.374448,-9.311682
3.48769,1.776112,2.811791,-9.512503,-0.499658,3.27733,-9.210972
3.520353,1.011287,5.317263,-9.968016,-0.28088,3.228247,-9.30001
3.554375,-0.408076,6.537751,-9.982531,-0.006584,3.198169,-9.237459
3.58771,-0.076468,9.778568,-10.895054,-0.651396,3.29005,-9.220998
3.621091,2.417631,10.18021,-10.010814,-0.430074,3.186497,-9.251376
3.654436,5.227926,8.423401,-8.433128,-0.282975,3.521398,-9.315722
3.687705,3.160908,10.271043,-12.322947,0.040104,3.554768,-9.47195
3.721011,-1.918872,13.633819,-7.413312,0.086194,3.483837,-9.431546
3.753624,0.723075,19.362301,-6.157508,-0.877057,3.976462,-9.501729
3.787705,4.925498,14.491872,5.449996,0.561011,4.066996,-9.34176
3.821052,-0.951879,24.851055,15.227966,-0.48619,3.998908,-9.184336
3.854411,-5.333125,-1.236051,-38.033251,-1.708623,3.529329,-10.735684
3.887728,4.440505,1.38704,0.944995,-1.315212,5.690921,-11.019707
3.921038,4.743382,9.361214,-3.954016,-0.303177,4.784384,-11.656886
3.954396,-1.923959,3.198319,-9.188676,-1.151203,8.940867,-17.876795
3.987714,-0.303476,3.146842,-13.442576,-5.430094,-6.405167,-20.91769
4.021042,0.006884,3.693637,-6.012055,1.042263,-5.048654,-13.907965
4.054455,1.673457,2.944375,-10.388513,-3.133224,-1.368185,-11.398752
4.087686,-0.116123,4.743681,-9.884066,1.056928,2.342211,-12.57719
4.121039,-0.124952,3.693338,-9.742803,2.759715,2.638205,-10.734338
4.154355,0.400445,2.952755,-8.520071,2.45579,5.868996,-12.645727
4.187786,0.211745,3.710995,-9.849499,-1.063063,8.105859,-11.16097
4.22104,-0.030826,3.455106,-9.086918,-0.442045,7.596026,-10.092669
4.254454,0.054919,3.27748,-8.84749,0.473171,6.363417,-6.778676
4.287689,0.750459,3.80542,-9.698808,-0.848924,4.73994,-1.604023
4.321038,-0.36064,3.621359,-9.101434,2.8082,16.477035,-9.669478
4.354379,0.838001,3.760677,-8.810378,-4.407883,21.713042,-7.844583
4.388044,0.260977,4.108896,-8.957028,0.926739,15.822048,1.060669
4.421075,1.1108,5.142031,-8.852428,16.510855,18.142561,14.331155
4.454373,-0.170593,3.649492,-9.125526,5.114197,23.53704,-54.21983
4.487676,4.475821,2.722454,-12.463462,-6.641004,-11.380945,-12.518381
4.521071,-2.174761,5.041321,-10.479645,1.81487,5.546366,-10.186046
4.554372,-2.450254,7.275341,-21.415252,-1.899867,2.515049,-9.465665
4.587788,3.409166,10.187093,-22.094332,1.209115,3.16016,-9.939135
4.621038,1.260891,-1.782996,-11.562162,-1.53818,2.731433,-8.124116
4.654393,0.390119,-4.574585,-8.354416,-0.371264,3.65877,-9.524923
4.687694,0.554277,-1.271217,-10.014705,-0.687759,3.095813,-9.309138
4.721062,0.7334,1.136239,-10.20086,-0.670101,2.851895,-9.275618
4.754392,0.439501,1.589507,-9.825257,-0.331309,3.353199,-9.374682
4.78769,-0.062551,6.65956,-11.235641,-1.237697,3.00079,-9.332183
4.821109,1.095985,7.300182,-10.690043,0.499658,3.361729,-9.52612
4.854376,1.648317,7.796547,-9.086469,-0.341635,3.30666,-9.214863
4.887695,2.387404,8.870834,-12.365745,-0.983603,3.380135,-9.32515
4.92104,1.469943,7.797744,-4.261681,0.129591,3.631236,-9.617403
4.953826,1.788532,11.158575,-8.970646,0.28073,3.376992,-9.171018
4.987002,7.455511,27.499585,-10.161055,-0.379345,3.608939,-9.517441
5.020222,4.297596,27.787797,-2.522232,-0.889328,3.90179,-9.386204
5.054364,1.60088,19.637794,31.879185,0.278934,3.693487,-8.988154
5.087706,-8.793169,0.80478,-60.345164,-0.693445,4.528196,-9.986572
5.121113,8.391228,2.519838,-13.685745,-0.763628,7.624458,-13.659707
5.154374,3.270896,-0.601565,-3.937256,0.240626,3.87261,-14.054466
5.187787,-1.314164,3.919897,-8.138631,2.644341,11.715846,-27.312082
5.22103,0.365578,6.292037,-17.048671,2.51879,-6.282609,-12.182582
5.254408,-0.118667,2.974902,-6.508421,-0.488435,-4.641775,-11.255095
5.287714,0.757792,4.099469,-8.94775,-0.333554,-2.289387,-11.115179
5.321033,0.698533,2.70749,-8.649362,1.001261,-0.501753,-9.883019
5.354397,-0.264868,3.728354,-9.909955,2.590469,2.277566,-11.091236
5.387743,0.911176,3.351553,-9.078688,1.836568,4.803988,-12.42635
5.42104,0.160417,3.589934,-8.987855,-0.065693,7.222068,-10.839237
5.454408,0.03756,3.657423,-9.373933,-0.832015,7.831713,-11.007885
5.487747,0.239878,3.489674,-9.184037,0.751956,6.035699,-8.305782
5.521038,0.12585,3.555367,-9.326497,1.318803,11.684421,-6.368953
5.554343,0.331758,3.538906,-9.184037,2.109966,18.339042,-5.65381
5.587722,0.253046,2.697613,-8.533688,-0.717239,26.546808,-0.920603
5.621041,-0.262324,3.971225,-11.489436,-2.042776,33.465849,3.81395
5.654401,-0.658878,3.801679,-7.956964,15.060365,9.516244,-50.223914
5.687731,3.06379,3.308755,-13.367754,-5.085616,-7.2713,-4.074927
5.721034,-4.481058,4.925947,-10.202357,-0.023644,7.20456,-11.235791
5.754389,-1.537881,4.249411,-11.167404,1.619436,2.869553,-9.250029
5.787729,-0.800141,7.546045,-38.388354,-0.382936,2.490956,-11.429429
5.82108,4.83227,5.499827,-16.984026,-1.474282,2.925969,-8.452731
5.854391,3.909572,-3.286758,-8.201481,0.009278,2.939885,-9.192716
5.887689,2.968168,-4.89931,-6.65103,-0.52809,3.107186,-9.264096
5.921035,0.885737,1.784043,-10.125141,-0.583907,3.227499,-9.185533
5.95436,-3.914659,6.957948,-10.350653,-0.623861,3.316237,-9.229977
5.987715,-3.519602,6.468765,-8.727326,-0.36468,3.026978,-9.2831
6.020589,0.090684,7.906834,-9.038135,-0.522104,3.099105,-9.316022
6.054229,1.382252,7.706911,-11.777648,-0.420646,2.988519,-9.372138
6.087714,0.410321,9.559042,-13.415041,-0.552931,3.364123,-9.337271
6.12104,-1.118282,5.996193,-7.20845,-0.548142,3.407819,-9.384558
6.154336,-1.043011,10.002883,-4.650304,0.071679,3.453161,-9.217407
6.187709,-1.780302,13.628432,-9.940631,-0.256189,3.76352,-9.354181
6.221098,-1.520372,15.199982,-5.206228,-0.516119,3.691542,-9.629673
6.254371,2.79144,21.643757,6.166786,-0.491876,3.594124,-9.713922
6.287782,3.780729,14.257082,2.11221,0.079011,2.831394,-9.110712
6.321049,-2.826456,1.598336,-11.137027,-0.316495,3.655179,-10.658768
6.354375,4.1912,16.210671,-12.275061,0.495917,10.017997,-14.533323
6.38773,-0.756595,-1.371478,-7.354053,-0.658579,2.648381,-12.828142
6.421067,-0.974475,2.681901,-7.89187,3.416049,9.298663,-24.892805
6.454376,1.491042,6.087475,-11.455168,-0.833661,-7.783079,-13.781218
6.487705,0.921501,0.920603,-6.035699,-0.076168,-3.388066,-10.986935
6.521082,0.650648,4.993136,-11.115328,-5.182734,1.365193,-9.785751
6.554128,-0.347022,3.302769,-8.972741,-0.624011,2.407007,-9.842316
6.587698,0.747467,3.835947,-9.716915,4.493778,3.345567,-10.076208
6.62111,0.383236,3.605497,-8.714906,3.234981,4.884196,-11.158875
6.654357,-0.002245,3.307408,-9.069859,0.161614,6.774037,-10.479645
6.687706,0.284471,3.850612,-9.394435,-1.565265,7.160565,-10.63692
6.721044,0.05013,3.468275,-9.046515,-0.681324,9.458482,-9.244792
6.754369,0.272201,3.208494,-9.079287,3.318033,5.648572,-4.571742
6.787708,0.017508,3.371007,-9.233568,3.605348,14.197973,-1.803946
6.821029,0.121211,3.49132,-9.160094,2.289537,27.775078,-12.911343
6.854353,0.13842,2.77438,-8.670163,2.057441,20.519789,2.89619
6.88772,-0.899953,4.266171,-13.705049,8.749473,20.550167,27.215563
6.921084,0.938561,1.431484,-12.169563,-6.197014,2.002223,-9.194212
6.954445,4.984457,3.59188,-17.094163,-0.755697,-4.328871,-14.039352
6.987701,-2.191371,6.738721,-9.285046,1.346038,6.595064,-11.427484
7.021039,-5.239897,5.089656,-24.758426,-0.294647,1.869639,-9.901874
7.054442,4.046944,7.201268,-15.461109,-0.346423,2.81239,-8.943411
7.087071,1.898071,1.540724,-11.585507,-1.439715,3.627944,-9.569666
7.121041,0.934969,-4.509939,-9.631319,0.064496,3.094915,-9.249431
7.154734,2.89185,-0.761383,-8.802447,-0.609645,3.073068,-9.227433
7.187723,1.724785,2.079887,-9.269782,-0.395806,3.146093,-9.115799
7.221041,0.311706,3.300974,-10.711292,-0.613386,3.375047,-9.323205
7.254347,0.568494,5.067658,-11.291907,-0.35615,3.439693,-9.061928
7.287686,2.323805,5.384901,-9.624286,-0.619372,3.464982,-9.183887
7.321039,3.413505,8.712661,-12.02845,-0.24736,3.410662,-9.0947
7.354755,5.232715,9.525073,-10.005127,-0.361687,3.601008,-9.152911
7.387705,4.94136,9.898133,-7.195581,-0.341186,3.543246,-9.245091
7.421041,-2.964876,12.482915,-8.059619,-0.5658,3.669095,-9.196008
7.454382,-4.588053,16.577895,-14.469725,-0.153683,3.920047,-9.12388
7.487705,-0.640322,13.46158,2.623839,-0.126448,4.170848,-9.462372
7.521065,11.344282,20.419528,1.565415,-1.085211,4.359698,-12.080376
7.554365,-8.036275,17.99621,-11.973082,-0.764077,2.837829,-9.760611
7.587707,-28.845025,31.805561,-19.175696,-1.90705,1.938026,-13.073855
7.621039,2.143934,2.343857,-7.240923,-0.370366,5.091901,-12.5941
7.654439,3.452562,9.065968,-18.61678,2.993308,7.391314,-17.15821
7.68776,1.112745,2.58987,-9.403263,-1.500769,2.507118,-18.772109
7.721043,0.088888,3.116015,-7.927485,1.360703,-1.550451,-13.611672
7.754371,0.229702,3.745413,-10.159409,-3.154024,-2.014793,-9.744449
7.78774,0.101757,3.375496,-9.26634,-2.377677,1.133994,-9.801912
7.821049,-0.375454,3.56255,-9.741457,0.739984,3.276283,-9.958888
7.854371,0.260528,3.030419,-8.672258,3.642609,5.592307,-10.265955
7.887738,0.55308,3.287506,-9.34206,2.411047,6.51306,-10.214628
7.921032,-0.189298,3.476954,-9.46776,1.710868,7.608745,-10.228095
7.954371,0.153384,3.442087,-9.485417,0.979263,7.059406,-7.829169
7.987689,-0.003741,3.247701,-9.215162,-2.467313,8.633351,-3.924237
8.021032,0.084698,3.278677,-9.138695,-0.452071,18.820444,-8.634847
8.054372,0.17613,3.220017,-9.020477,-0.013169,25.006384,-8.401554
8.087733,-0.460451,3.810209,-9.855036,0.720381,23.007004,4.186561
8.121039,0.115524,4.516673,-7.700925,8.730768,31.642001,-4.518918
8.154367,1.288875,4.621722,-9.567721,7.851466,-3.425177,-3.674632
8.187708,3.784919,2.747744,-15.520518,-3.683311,-1.874577,-13.75518
8.221034,-2.718264,6.955853,-7.654386,-4.476868,1.365492,-8.064707
8.254066,-2.700157,3.510923,-10.075759,1.493287,3.068279,-9.310485
8.287707,7.127344,14.264564,-28.764816,1.142973,3.791803,-6.48343
8.321008,1.209714,-1.103916,-8.995486,-0.97672,2.912201,-8.018168
8.354396,0.321433,-5.734617,-5.058231,-0.456561,3.597267,-9.967118
8.38771,1.035529,-3.096561,-6.703256,-0.46509,3.065136,-9.197504
8.421094,0.156826,1.56766,-10.386268,-0.703771,3.235281,-9.111011
8.454406,-1.438218,2.635512,-12.300201,-0.547394,3.141903,-9.254668
8.487704,-2.332485,5.4485,-9.708685,-0.316196,3.066483,-9.318117
8.521027,-2.743853,6.316429,-11.130293,-0.539463,3.086685,-9.228181
8.554402,-1.561823,7.014663,-10.778482,-0.676685,3.216725,-9.271877
8.587727,1.632754,5.485162,-8.310122,-0.22641,3.269549,-9.370192
8.621032,0.922998,7.530781,-6.598506,-0.283124,3.346016,-9.399223
8.654372,-4.513531,17.547731,-13.008611,-0.355402,3.462439,-9.305098
8.687706,-4.416263,18.573683,1.851981,0.060156,3.639466,-9.287739
8.721004,1.949548,25.602112,-0.311557,0.399098,3.813202,-9.45519
8.754373,-0.890376,27.972606,15.417862,-1.042712,4.126554,-10.097607
8.78771,-5.30185,9.070308,-2.946021,-0.808371,2.555902,-10.499548
8.820828,0.098315,4.734404,-7.278932,-2.287292,3.316088,-11.24028
8.854397,1.323891,9.592263,-7.575525,-0.22222,5.012291,-12.092198
8.887704,-0.21369,3.814548,-8.720892,-1.160631,7.004337,-19.334916
8.921052,0.940207,2.835285,-8.644574,-6.174567,0.159968,-16.224139
8.9544,0.606503,4.452776,-10.062291,0.586301,0.76677,-14.793402
8.987699,-0.539912,3.343323,-8.45318,-3.589934,-1.894929,-9.767794
9.021038,-0.100859,3.250095,-8.930242,-1.875325,-0.616978,-10.362175
9.054435,0.558318,3.509426,-9.192117,0.0838,0.084099,-8.854373
9.087732,-0.290008,3.463785,-9.14049,3.154024,2.989567,-11.406683
9.121038,-0.338792,3.596219,-8.99414,2.157702,4.575034,-10.606991
9.154352,-0.034119,4.056371,-9.551709,0.067788,6.156311,-9.807748
9.187697,-0.275343,3.67119,-9.085422,-1.340502,4.397258,-6.730491
9.221038,-0.076019,3.545341,-9.122084,0.139168,7.030675,-9.058037
9.254354,0.193638,3.715784,-9.152612,-0.942751,24.532914,-15.373867
9.287783,-0.179123,3.707105,-9.03993,3.957607,26.975685,-2.746397
9.320696,-0.57403,4.261681,-10.018745,4.079716,26.858215,5.949055
9.353932,-0.328017,4.509041,-7.074969,5.359163,28.000889,34.649226
9.387078,4.852921,6.794089,-12.486806,6.783165,48.898826,-28.55801
9.42062,2.042926,6.624095,-13.555556,-0.048335,-1.905853,-12.761401
9.453956,-0.536769,6.801571,-9.875986,-0.413314,7.198424,-8.726578
9.487296,-5.603829,-1.520073,-16.175056,0.55727,4.322287,-9.689979
9.520599,-1.892085,6.875196,-29.193693,-1.265381,3.698276,-9.157999
9.553968,4.746225,-2.742806,-9.902921,-0.758091,3.169887,-8.915727
9.587787,7.019152,-4.429581,-9.088115,0.029779,3.115566,-9.355228
9.621019,4.943604,-0.6704,-12.760204,-0.05851,3.110029,-9.39623
9.654428,0.045043,3.894458,-9.872095,-0.376651,3.283017,-9.180146
9.687676,-0.888281,3.21448,-9.768841,-0.78787,3.325665,-9.259008
9.721385,-1.69725,4.842446,-10.966434,-0.396554,3.266556,-9.121037
9.754413,-1.681538,8.22707,-11.749066,-0.573282,3.247551,-9.150816
9.787705,0.614284,8.43253,-10.474557,-0.629099,3.385821,-9.231473
9.820587,0.20112,9.214713,-7.459701,-0.525546,3.356641,-9.225338
9.854384,-1.100624,9.656759,-8.072489,-0.099961,3.363076,-9.261851
9.887707,-2.332934,10.086982,-7.524796,-0.167301,3.509875,-9.293126
9.921509,-3.300674,9.480779,-7.159517,0.103403,3.794795,-9.437382
9.954395,-4.167107,18.114279,-3.709948,0.10071,3.781627,-9.571163
9.9877,2.804758,15.815015,1.163324,-1.272115,4.008336,-9.427506
10.021482,0.597824,29.393765,19.642881,-0.712001,3.328358,-9.709433
10.054451,-23.424658,26.059272,-7.897556,-3.943391,2.019432,-12.215354
10.087291,14.056112,3.887724,-20.230829,0.106097,8.890587,-15.421454
10.120616,-2.466265,4.049188,-11.401595,0.78802,3.899695,-12.92526
10.153947,0.076168,4.540017,-11.522806,-0.976869,11.85232,-21.290899
10.187295,0.700479,3.047179,-9.746844,-8.301442,-2.097844,-14.992727
10.220616,0.907584,3.723865,-9.634611,2.779318,-1.509598,-11.207508
10.253956,-0.115375,3.257128,-9.067465,-0.948287,-4.636986,-7.79939
10.287284,0.191842,3.564046,-9.434838,-1.104066,2.618303,-9.736369
10.321042,-0.084249,3.505685,-9.447259,1.809183,2.773033,-9.334727
10.354372,0.487986,3.395698,-9.108168,0.51552,5.425904,-9.4507
10.387696,0.118068,3.481593,-9.376627,1.362349,6.99506,-10.287204
10.421039,0.063598,3.212984,-9.144531,-0.047736,8.098527,-10.141751
10.454365,0.029031,3.360981,-9.306295,1.367587,8.544313,-10.234231
10.487704,0.108192,3.440142,-9.203341,1.535486,10.23019,-7.282524
10.521039,0.066292,3.379387,-9.215312,1.501068,12.165523,-4.983709
10.553694,0.144854,3.509127,-9.117595,-2.582239,18.060557,-4.055773
10.586927,-0.319937,3.735387,-9.143483,0.376202,27.742156,-5.018426
10.620257,-0.4193,4.269313,-9.222794,9.026612,31.250834,23.630866
10.653601,0.168498,5.110756,-9.351487,8.050192,3.502393,-63.853992
10.686928,5.145922,2.42227,-10.742867,-5.559235,-8.137583,-13.157655
10.72026,-1.03119,7.255289,-12.61909,-0.82139,9.272326,-10.545488
10.753592,-1.891636,6.287398,-10.840285,-0.008979,4.388279,-8.397364
10.786915,-2.702103,3.531274,-18.007134,0.617128,3.170635,-9.48437
10.820629,4.922505,9.452496,-15.918568,-0.225512,2.932254,-9.257362
10.853868,5.212662,-2.265594,-11.144958,-0.550686,2.953054,-9.267537
10.887743,4.610948,-3.935161,-9.748639,-0.268609,2.977146,-9.340563
10.920602,0.939009,0.029779,-10.099253,-0.259032,2.872995,-9.297167
10.953864,-0.987793,3.453161,-11.174737,-0.622664,2.858928,-9.190471
10.987289,-1.467548,3.814399,-10.427719,-0.977917,3.048227,-9.240302
11.020631,-1.338407,6.847063,-9.919083,-0.225512,3.006476,-9.331734
11.053962,-0.727863,8.599531,-12.132601,-0.971033,3.241865,-9.250628
11.087298,-0.10894,8.626168,-10.40213,-0.182864,3.008571,-9.138246
11.120622,-1.012933,4.996428,-9.504123,-0.866133,3.13068,-9.3253
11.153956,-4.431975,8.77177,-5.646477,-0.105648,3.125892,-9.301057
11.187321,-3.853755,14.097413,-10.833401,-0.500855,3.130979,-9.251675
11.220617,-1.971097,17.960895,-4.788425,0.043696,3.300824,-9.418527
11.253952,-0.543354,25.028232,2.769442,0.5866,3.547136,-10.034308
11.286791,-1.497627,16.015087,13.588477,-1.157787,3.954165,-10.082194
11.321075,-12.142328,-9.72754,-28.294788,-1.263735,3.945935,-13.663149
11.354378,3.085338,18.530735,-6.996107,-0.76288,1.885501,-12.745688
11.387682,3.568386,8.528451,-14.886031,-2.837081,6.665396,-13.984582
11.421038,0.009428,0.927188,-7.150688,0.003442,4.864743,-13.948818
11.45438,0.876908,2.873294,-8.077577,-0.69584,8.628861,-23.438575
11.487706,-0.116572,3.490871,-9.011798,0.869725,-5.422462,-12.133499
11.521047,0.336697,3.752596,-10.546386,0.413912,-2.843964,-10.259072
11.553941,0.453268,3.491619,-9.218754,-4.916369,2.201846,-8.764438
11.587261,-0.477211,3.176022,-8.983814,-1.016225,4.015818,-8.688419
11.620589,0.500256,3.58769,-9.50532,1.91528,4.784534,-8.489244
11.653932,0.27235,3.673585,-9.661996,2.037389,6.078048,-8.912285
11.687268,-0.010625,2.986275,-8.64188,1.003805,5.768436,-7.722324
11.720625,0.120163,3.406771,-9.281005,-0.435611,4.356854,-6.642052
11.753882,-0.09233,3.602055,-9.544526,-0.017957,5.910298,-18.130141
11.787296,-0.189448,3.29424,-9.203341,12.06182,20.746947,-5.129311
11.820629,-0.1884,3.348111,-8.844946,1.645773,20.885068,1.0267
11.853958,-0.264569,3.602953,-9.287589,2.597802,23.84306,5.95534
11.88729,0.495767,5.198746,-11.124606,10.601155,33.916125,6.028516
11.920638,-0.901599,4.045747,-8.152997,12.177644,2.666488,-7.571783
11.953949,3.781328,1.823399,-12.932143,-1.800953,3.028324,-8.356661
11.987194,-1.891636,4.064003,-13.181598,-5.929153,2.395784,-9.397278
12.021048,-1.55509,4.419704,-9.516543,0.798046,1.78524,-10.373997
12.054396,-1.966308,5.898626,-25.789465,0.541109,3.124694,-8.191305
12.087823,3.752147,7.055815,-15.575137,-1.281841,2.726046,-9.229378
12.121038,4.684423,-2.467163,-6.167833,0.361238,3.120804,-9.336672
12.154364,5.987813,-6.878039,-7.251099,-0.463893,3.219269,-9.379021
12.187784,0.831416,0.374706,-11.588051,-0.278486,3.203257,-9.225637
12.221034,-4.183568,3.7092,-10.352449,-0.442195,3.267304,-9.251675
12.254378,-5.341206,5.121829,-10.270295,-0.168797,3.230941,-9.238806
12.286926,-3.619115,4.460856,-9.314525,0.10909,3.304565,-9.304499
12.32026,-1.367288,8.065904,-11.385733,-0.101159,3.285561,-9.215911
12.353579,0.434264,8.710866,-12.102523,-0.38563,3.430565,-9.166079
12.386925,0.024093,11.488837,-5.648572,-0.01242,3.581105,-9.309737
12.420259,0.287015,13.093608,-4.86998,0.478109,4.097822,-9.557994
12.453608,1.565116,21.076012,-11.753556,0.049083,3.782674,-9.125526
12.486958,-0.166403,38.410052,20.926219,-0.751657,4.236392,-9.887358
12.520649,-11.124756,-2.727991,-12.428146,-0.968489,3.504488,-10.655326
12.553868,-9.928959,24.534859,2.798922,-4.703727,2.35134,-12.235556
12.587257,5.35198,4.3377,-14.919103,-1.725234,3.863631,-16.542429
12.620623,-0.068088,1.811578,-12.696755,-1.126213,6.74336,-16.966368
12.65394,1.044807,2.384261,-7.86673,-9.190322,4.62292,-19.298104
12.687335,-0.136774,3.327461,-9.925667,-2.81643,0.149344,-11.843042
12.72059,0.355552,3.819487,-9.408651,0.852366,-4.190152,-9.465515
12.754379,0.228954,3.688399,-10.062441,1.138184,-1.348133,-9.01479
12.787313,0.33954,2.990165,-8.148807,3.622556,0.724272,-10.425325
12.820627,0.075869,3.807365,-9.810442,2.654516,2.776475,-9.262449
12.853963,0.1257,3.49536,-9.282352,0.595878,6.329148,-10.993519
12.887549,0.324426,3.316387,-9.214564,-0.652443,7.419746,-10.432208
12.920628,-0.11298,3.324019,-9.032448,-0.94305,7.547541,-9.14079
12.953959,0.207106,3.4156,-9.201694,3.272093,6.960642,-11.422096
12.987257,0.031724,3.525289,-9.251526,0.443841,9.592263,-5.57405
13.020626,-0.623712,3.65054,-9.351337,0.93452,11.306871,-4.349073
13.053961,-0.296742,3.828914,-9.22025,3.911966,25.343081,-9.317518
13.087268,-0.460601,3.679271,-9.310784,-4.433621,19.362151,3.746311
13.12042,0.899803,4.443348,-10.312344,2.433943,18.310311,11.475669
13.1536,1.724785,2.970113,-10.175421,25.77914,19.596492,-54.121664
13.18729,-3.367565,-2.493351,-15.342143,-4.76523,-4.872075,-11.079264
13.220625,-4.414916,6.356533,-11.293852,-7.354053,7.08275,-11.800843
13.253963,-2.314976,4.835861,-13.196263,-0.449228,2.674119,-9.251077
13.28729,2.524327,13.877438,-36.568995,1.58831,3.218072,-9.147973
13.320661,5.361557,4.39651,-15.007691,-0.455513,2.54812,-10.600108
13.353965,3.02997,-4.553934,-3.742271,-0.939907,2.668732,-9.187029
13.387291,0.649899,-9.412541,-6.069219,0.072427,3.032963,-9.14468
13.420615,-0.419449,0.838449,-11.078816,-0.97642,2.783508,-9.388898
13.453939,-1.977382,6.015048,-9.781411,-0.602762,3.00094,-9.13645
13.487208,1.453183,5.074991,-9.122234,-0.681474,3.024134,-9.246737
13.520618,1.805293,4.954678,-9.552308,-0.330412,2.883021,-9.320511
13.553949,1.440313,8.327929,-8.879513,-0.494121,3.050471,-9.427206
13.587291,3.86423,6.205992,-4.809375,-0.447432,2.966821,-9.335026
13.620616,-1.237398,10.072317,-8.850333,-0.298538,3.192333,-9.306295
13.653957,-1.470691,26.721292,-10.929173,-0.516567,3.416947,-9.418527
13.687286,-1.459767,22.204469,12.738356,-0.341336,3.509875,-9.539738
13.720663,-6.840628,34.06921,1.783894,-0.169545,3.530526,-10.235428
13.754398,0.434413,-3.674034,-11.514426,-1.030142,3.111227,-11.356403
13.787693,0.228804,-1.593847,2.494398,-0.776797,-1.969301,-10.78776
13.82104,0.568494,5.25561,-23.116842,1.30773,5.041022,-15.366984
13.854394,1.776561,3.261917,-9.949161,-0.271752,8.995486,-16.329637
13.887744,-0.325324,6.193871,-8.744535,-6.281113,7.604705,-20.747546
13.921071,0.100261,3.759031,-9.215761,2.062678,5.389241,-13.307448
13.954243,-0.23045,3.456453,-8.962266,-1.143871,-5.309481,-7.283721
13.987393,-0.261576,3.902538,-9.5137,1.024007,-1.094638,-7.578966
14.021039,-0.32263,3.691392,-9.279958,3.086984,2.383214,-9.041427
14.054379,-0.060905,3.495959,-9.019429,5.644831,3.233186,-7.551432
14.087745,-0.35615,3.749154,-9.270231,3.794945,5.248876,-8.869936
14.121043,-0.137821,3.710098,-9.292677,1.884005,7.785623,-10.572274
14.154371,-0.065843,3.568984,-9.159495,0.039805,10.519899,-8.806038
14.187706,-0.47781,3.668946,-9.210823,-2.494398,8.473981,-4.789921
14.221044,-0.467634,3.776988,-9.225937,-0.130788,11.394113,-5.813628
14.25388,-0.437556,3.764568,-9.008356,0.372461,20.28455,-5.677753
14.286788,-0.260528,3.624502,-9.02736,2.051754,24.353941,-5.734318
14.320634,-0.403886,4.215891,-9.435437,7.506838,27.583834,13.290688
14.353957,0.868528,4.925647,-9.221896,0.769165,12.379362,-21.766764
14.387291,-0.995275,1.261041,-9.824209,-4.216489,-4.168454,-7.054917
14.420618,1.620035,6.399181,-14.399093,-1.03927,4.898861,-11.876113
14.453958,-2.687887,6.134613,-9.033346,-1.174099,2.561588,-7.505342
14.487291,-4.818204,2.444866,-13.115755,0.505195,2.494997,-10.010664
14.520612,-6.812046,14.452815,-25.235188,-1.73915,3.188742,-9.547669
14.553954,3.191734,-0.466587,-11.639079,-0.27235,2.890653,-9.267088
14.587297,4.334857,-2.904719,-7.814804,-0.858053,2.859377,-9.356425
14.620627,2.001474,-2.301808,-8.882356,0.055069,2.778421,-9.382463
14.653946,-1.117982,2.043823,-9.981484,-0.649151,3.06798,-9.233568
14.687318,-0.895463,2.285197,-7.383832,-0.344179,2.82466,-9.416731
14.720608,-2.695668,3.703364,-8.921563,-0.379195,3.222411,-9.319463
14.753958,-2.12912,6.604192,-9.529263,-0.652443,2.937042,-9.24135
14.787364,-0.645709,10.826218,-15.303535,0.179572,3.305912,-9.393537
14.820623,-1.178438,8.672407,-8.660436,-0.46943,3.079053,-9.310036
14.853957,-0.321882,10.433705,-2.811941,-0.20935,3.127538,-9.368546
14.887242,-0.146201,13.58339,-1.951494,-0.183911,3.226302,-9.448306
14.920598,-1.554042,23.954394,-17.573768,-0.28492,3.289002,-9.588222
14.953968,-5.633608,26.284933,-1.560926,-0.189897,3.422035,-9.898133
14.987282,-4.083606,12.277605,21.123598,-1.393026,3.222112,-10.590381
15.02062,-6.427763,16.238654,-71.049723,-0.576125,2.987472,-13.255223
15.053958,4.918614,-6.471609,-20.551364,-2.165034,3.246803,-11.980265
15.08769,1.850934,5.712171,-8.41128,1.580828,5.2387,-14.271597
15.120615,0.128394,3.560904,-9.688633,-0.429625,9.169072,-16.874786
15.153786,-0.493373,3.515562,-8.961368,-4.443647,4.722881,-20.68694
15.1873,0.305421,4.202423,-9.81119,-0.57822,-4.209456,-10.503438
15.220639,0.042499,3.552075,-8.929943,-2.73248,-2.502778,-9.510408
15.254359,-0.02095,3.518854,-8.999527,-0.375604,-0.207704,-8.715654
15.287292,0.049233,3.94788,-9.618899,2.8498,1.958377,-9.623987
15.320606,0.157125,3.555965,-9.025714,1.352772,6.946875,-10.035505
15.353919,0.028283,3.592628,-9.009403,0.563256,8.616142,-10.00827
15.38729,-0.239578,3.761874,-9.306744,0.020202,9.154557,-9.695666
15.420633,0.078263,3.647397,-9.232521,0.18436,7.615928,-8.370727
15.453997,-0.015713,3.571079,-9.044719,1.125165,5.298109,-6.174418
15.487288,-0.267113,3.661314,-9.190621,0.495318,7.61533,-5.290926
15.520626,0.064795,3.72596,-9.059833,0.06719,11.926992,-6.519195
15.554223,-0.597824,3.633929,-9.234466,-2.591217,20.688586,-4.495424
15.587304,0.307367,4.181772,-9.438729,1.532194,29.79436,4.104556
15.620628,0.976121,3.475607,-8.779552,12.660392,36.041504,-10.365019
15.653873,-0.261277,5.569262,-9.356276,-0.191244,-3.110029,-10.320275
15.687309,1.640087,-0.446235,-10.294387,-1.248172,4.786629,-8.648464
15.72063,2.452648,6.983537,-16.506964,-2.266642,2.843665,-9.232371
15.753911,-2.289986,5.398369,-9.650174,0.55757,2.307943,-9.839173
15.787312,-0.835906,7.628348,-33.139029,-0.594681,2.951258,-9.121187
15.820612,-0.030976,8.04271,-14.320231,-0.101009,2.501132,-9.519386
15.85389,3.950574,-0.073774,-8.363694,-0.143208,2.593163,-9.388748
15.887293,4.737696,-3.92274,-9.609023,-0.013019,2.691328,-9.498137
15.920614,1.438967,0.482299,-8.250714,0.100261,2.834237,-9.491852
15.953863,-1.155543,3.76337,-10.24306,-0.995425,2.859377,-9.262599
15.987316,-1.49209,3.596219,-8.860209,-0.928235,3.069326,-9.187329
16.020589,-1.072641,6.331692,-10.914059,0.063,2.883021,-9.160842
16.053961,-1.460366,7.002093,-10.454954,-0.678331,3.076509,-9.255865
16.087282,-0.918209,9.055643,-11.373911,-0.145004,3.083543,-9.411195
16.120631,-1.327483,6.808006,-4.836909,-0.420048,3.08474,-9.251825
16.153962,-5.992153,13.384215,-7.073921,0.219377,2.827354,-9.310036
16.1878,-2.971011,13.76326,-4.495124,-0.458656,3.167941,-9.658704
16.220143,3.031168,18.270057,-0.368571,0.811963,3.655478,-9.772732
16.253472,2.478835,44.302992,19.677898,0.206358,3.835947,-9.469256
16.287595,-10.677024,8.995486,-61.692849,-1.312818,4.131043,-15.434174
16.320148,3.337337,-3.717131,-6.954506,-2.94228,2.376929,-11.393365
16.353477,3.031317,3.937256,-10.973168,2.065671,8.86829,-14.787566
16.386811,0.530185,3.252639,-12.856125,-1.099876,5.86316,-12.603228
16.420147,0.228205,2.665291,-8.520071,-2.194963,8.283934,-22.173793
16.453514,-0.047736,3.458997,-9.431097,-6.059941,-5.013338,-15.021009
16.486847,0.705566,3.592778,-9.034992,2.808798,-2.093654,-13.203446
16.520173,-0.171491,3.662361,-9.409848,-1.231711,-1.268673,-8.034629
16.553506,0.215486,3.548633,-9.213516,0.393561,1.488049,-7.436506
16.586746,-0.133482,3.495061,-9.060731,-0.317093,3.11407,-8.477572
16.620164,0.148296,3.607293,-9.326646,-3.117063,7.569539,-9.446061
16.653501,0.17179,3.64186,-9.300459,-3.513018,10.06274,-11.592241
16.686836,0.039506,3.455705,-9.244941,-2.191072,8.779701,-8.743937
16.721093,-0.20546,3.295736,-9.021674,-2.549916,9.478684,-3.087433
16.753491,0.051178,3.751549,-9.531807,-6.835091,6.593867,-5.936036
16.786843,-0.118368,3.456453,-9.050106,4.267069,19.049098,-9.958738
16.820172,0.067788,4.013274,-9.352235,-0.995126,17.653378,0.597225
16.853509,0.399098,3.981999,-9.604384,3.137713,22.31745,1.692761
16.886841,-1.043311,4.25405,-9.601989,15.434473,35.173425,2.927914
16.920154,-0.404635,4.597031,-9.407005,9.688184,-4.949291,-10.660863
16.953522,1.960921,-1.070097,-9.824808,-2.693573,7.884238,-11.038113
16.986816,1.027448,7.602311,-16.067163,-5.59515,2.795031,-9.122084
17.020181,-0.083052,6.681707,-9.032598,0.783381,2.130467,-9.628326
17.053475,-2.956047,3.62959,-22.414867,0.867031,3.905531,-9.347746
17.086977,-2.066419,11.151093,-19.687774,-1.482812,2.995852,-9.156502
17.120152,0.465838,1.236949,-11.573685,0.600368,2.98837,-9.377675
17.153451,2.36376,-2.351938,-7.786521,-0.316644,3.017251,-9.349841
17.186838,4.976227,0.228205,-10.206846,-0.600368,3.223159,-9.110263
17.220205,4.374363,3.014557,-9.535997,-0.294198,2.981935,-9.245989
17.253505,1.590256,2.507717,-8.895226,0.059259,3.16435,-9.313627
17.286909,-2.561438,3.84747,-10.082194,-0.16775,3.157466,-9.198103
17.320267,-2.920581,7.369616,-11.102459,-0.552631,3.095963,-9.351487
17.353666,-0.42334,5.695411,-8.232307,-0.210248,3.023536,-9.292677
17.386838,-0.74612,-1.497627,-7.814953,-0.228804,3.09716,-9.361064
17.420173,-10.296033,14.072872,-7.1037,-0.233593,3.306511,-9.447109
17.453533,-4.173542,16.570412,-2.930757,-0.033071,3.296036,-9.529263
17.486838,1.683782,31.769198,-4.479412,0.602612,3.750202,-9.906213
17.52017,-6.837934,9.566823,14.177322,0.82154,3.674931,-9.965771
17.553517,-9.621144,37.185374,-31.316677,-2.114006,1.104814,-11.068191
17.586848,9.442021,-2.755525,-15.755756,-4.058017,3.008571,-13.078794
17.620172,-4.211401,8.234702,-15.763538,0.990786,6.283358,-11.565754
17.653431,0.805678,1.744537,-6.206142,1.938026,3.44104,-19.159086
17.686846,0.669503,2.583885,-8.705179,-4.980117,-3.221513,-12.757809
17.720171,2.420325,4.659283,-12.18348,-3.347812,1.729424,-11.825235
17.7535,-0.321134,2.302107,-8.161077,-5.229422,-1.673158,-8.39467
17.786828,0.260828,3.823377,-9.485717,2.446064,0.186006,-9.407603
17.82017,0.011672,3.561203,-9.452047,2.374385,1.791675,-9.695516
17.853516,0.167301,3.763969,-9.747293,0.321732,5.584226,-10.877247
17.88683,0.334452,3.056906,-8.905551,-2.477339,6.730192,-11.729313
17.920174,-0.170294,3.44089,-9.274122,-4.655242,8.247272,-9.782908
17.953525,0.310359,3.616571,-9.534351,-4.615138,6.628285,-7.673541
17.986789,0.033221,3.40303,-9.219053,-2.350292,2.256616,-5.968509
18.021066,-0.068536,3.51646,-9.138096,4.780194,15.841651,-5.514043
18.054367,-0.028881,3.508678,-9.002071,-1.656398,22.130995,-6.440632
18.087704,-0.110736,4.021953,-9.529562,3.261618,29.892076,-5.646328
18.120071,0.981508,3.480695,-9.082579,8.052137,13.898538,16.943472
18.153494,-0.781585,5.861365,-10.77519,5.046858,9.6602,-3.614476
18.186853,-0.811663,4.57683,-8.687072,-2.168326,-4.403693,-11.175784
18.220106,2.098892,5.581682,-13.009359,-2.553358,4.410726,-8.504059
18.253504,-3.966286,5.082473,-10.73763,0.254692,2.50218,-10.13382
18.286759,-2.382166,2.435738,-16.933596,1.301445,2.331736,-9.732927
18.32012,-5.784448,11.572787,-26.220587,-0.940057,3.022339,-8.962565
18.353495,-0.442045,3.67987,-11.919659,-0.760635,2.948565,-9.264096
18.386845,1.761597,-3.17662,-9.298064,0.113429,2.875689,-9.491553
18.420629,6.192973,-2.352836,-6.517848,0.374856,2.852494,-9.604683
18.453516,7.564002,-2.982983,-9.133457,-0.566698,2.998096,-9.275768
18.486838,2.131215,3.250843,-12.086212,-0.208752,2.998545,-9.240153
18.520272,-3.141604,3.374448,-10.475455,0.048784,2.871499,-9.406256
18.553512,-5.077086,6.170078,-11.412519,-0.353457,3.040445,-9.255267
18.586827,-2.163089,6.799476,-11.30732,-0.32697,3.226901,-9.237459
18.620069,-0.998418,2.417931,-6.36222,0.089935,3.07606,-9.452496
18.653833,-4.574435,8.982019,-6.29488,-0.051477,3.130381,-9.53046
18.687287,-3.806917,20.12563,-5.171062,0.56146,3.218072,-9.545424
18.720638,0.985698,35.953963,-3.517058,0.089486,3.841484,-9.941978
18.753955,-1.996536,35.987632,27.653268,-0.608598,3.839988,-10.290347
18.787295,-4.316451,-1.417568,-8.207766,-2.77872,3.302321,-14.572081
18.820623,4.993435,4.902153,-5.51973,-4.353862,2.677262,-11.846634
18.853966,1.201932,4.228161,-11.203169,1.567211,7.760783,-12.056283
18.887709,-1.227521,2.32605,-7.187201,-1.466052,6.449761,-19.042514
18.921077,0.007183,3.327909,-9.14498,-9.829447,1.591602,-17.626742
18.954478,0.496216,3.815147,-10.313691,-0.12989,-1.773718,-13.686045
18.987747,-0.405682,3.395847,-9.351786,-1.022061,-1.983368,-9.448905
19.021276,0.064047,3.092072,-8.754861,3.192632,0.793856,-10.097008
19.054477,-0.358096,3.658171,-9.670227,3.916605,2.353734,-9.221597
19.087728,0.090833,3.239171,-8.915727,3.766812,4.655691,-8.493584
19.121094,-0.332357,3.453909,-9.338618,1.713711,4.485098,-8.251611
19.153904,-0.486938,3.328059,-9.351337,-1.81487,6.135959,-7.181515
19.187263,-0.268459,3.584098,-9.453992,-1.809632,8.716552,-11.7561
19.220591,-0.502501,3.274786,-9.214713,2.915793,1.243383,-6.908117
19.253812,-0.333255,3.543994,-9.50951,4.426887,21.665306,-6.080292
19.28725,-0.864038,3.296036,-8.791373,-0.221472,46.944938,0.70392
19.32057,1.056928,4.501709,-12.654855,14.968634,14.412112,-28.58719
19.353894,1.406344,3.051369,-7.834556,2.37633,-6.652527,-5.507609
19.387258,5.191413,8.932337,-18.699083,-3.392106,6.174867,-8.100472
19.420582,-1.811428,7.248106,-7.828571,-0.935268,2.917738,-10.57826
19.453913,-1.330176,3.924386,-15.135337,1.62632,3.00079,-8.863202
19.487225,1.223481,10.957305,-25.428227,-1.292915,3.557162,-9.688034
19.520579,2.346401,1.994591,-16.580738,-0.291654,2.779318,-9.561436
19.553905,3.107785,-2.337572,-8.467696,0.553978,2.666488,-9.432294
19.587247,2.359121,-2.253323,-6.75159,-1.08147,2.824361,-9.215911
19.620572,-0.721279,2.416434,-9.080184,-0.044743,2.87943,-9.403114
19.65393,-3.987985,6.722709,-12.163428,-0.642716,2.90442,-9.312131
19.687246,-3.923039,6.989074,-9.231623,-0.6704,2.729787,-9.244492
19.720601,-1.048249,7.389818,-7.502798,-0.840844,2.923874,-9.366451
19.753912,-0.110736,10.346014,-11.26572,-0.231498,2.90023,-9.422567
19.787223,0.016012,10.880988,-11.514277,-0.414062,2.735922,-9.293725
19.820605,-4.90365,11.909334,-6.880134,-0.514921,2.703599,-9.43424
19.853942,-0.890226,19.543369,3.973619,0.271752,3.127837,-9.654664
19.886946,1.839112,33.793418,0.334602,0.505195,3.399439,-10.101497
19.921038,-5.110756,15.313711,-7.174033,-0.257087,3.578861,-10.434603
19.953741,-0.34358,-1.139681,-1.816067,-1.623476,2.757022,-12.700347
19.986942,1.825045,2.120141,-7.394008,-4.027041,1.665227,-12.056134
20.020298,1.224528,7.692396,-14.363927,0.536919,6.348153,-14.137068
20.053604,-0.62865,2.389948,-8.448541,-6.083285,8.251611,-24.418437
20.086963,-0.142909,3.323271,-7.880048,-4.516972,-11.115628,-16.157697
20.120622,0.55323,3.159112,-9.150068,0.032622,-8.519173,-12.531998
20.15394,-0.751507,4.036618,-10.419189,-1.685429,-1.594595,-10.064087
20.187291,0.02918,3.301423,-8.441209,-0.499508,1.985163,-11.20272
20.22063,0.222968,3.045084,-8.608061,1.143272,4.453075,-11.105003
20.253959,-0.411069,3.997262,-9.975049,2.018085,4.463101,-10.274784
20.287281,-0.317243,3.476355,-9.499783,0.039057,6.375687,-12.198743
20.320606,0.182564,2.952006,-8.667768,-0.403737,6.078197,-8.164669
20.353877,-0.806725,3.53322,-9.541683,0.514323,6.882079,-2.87913
20.387277,-0.111783,3.639765,-9.491702,6.472806,21.668448,-11.810719
20.420531,-0.080059,3.404527,-9.061928,7.943197,22.860205,-3.837743
20.453964,0.141413,3.180511,-9.040379,0.25559,22.126655,0.820193
20.48727,-0.648852,4.458312,-11.732905,3.356791,18.746819,6.396937
20.520623,0.224913,0.615182,-9.558443,12.419317,-8.772668,-30.876877
20.553956,6.574563,6.028366,-17.605044,6.161997,3.026978,-8.622576
20.587276,-2.639253,4.409229,-8.19355,-16.058334,2.256765,-4.562763
20.620626,3.673435,-5.463913,-29.328671,3.337487,5.866901,-11.203019
20.653951,-0.21788,8.693956,-15.337504,-5.152656,-1.522318,-6.72241
20.687203,-1.065458,-5.089806,-7.290604,1.866347,6.212427,-11.698936
20.720624,-0.932724,-1.637992,-8.739298,-1.434178,1.536085,-9.339815
20.753976,0.681624,3.103295,-9.088415,-1.214203,3.580357,-9.973253
20.787249,0.824084,4.868633,-9.888406,-1.552845,3.823228,-9.639699
20.820622,-1.636645,6.491212,-8.434625,3.11811,2.493051,-9.880325
20.853906,-0.356898,8.299198,-10.262214,0.88424,-1.066655,-7.600665
20.887198,1.088952,8.90166,-10.268499,-4.345182,3.99846,-9.506218
20.920622,0.274744,7.931824,-8.902558,-0.508936,2.051006,-9.163685
20.953935,1.813673,5.498032,-8.690514,-1.34529,1.770426,-8.825193
20.987245,-2.713924,13.715375,-13.663449,-0.274595,4.171896,-10.036253
21.020623,-5.25546,6.415043,-0.443242,-0.013618,4.083008,-11.59658
21.053947,-1.417418,7.524496,-1.541472,-0.834409,2.708388,-8.060368
21.087684,2.098742,13.738569,-15.870383,0.048933,3.099704,-10.891612
21.12061,-0.896511,11.821793,10.407817,0.195583,2.793983,-8.989501
21.153939,-3.909422,24.957002,-2.563384,-1.281692,3.570331,-10.542495
21.187299,-14.135422,-7.657379,-14.053119,-1.805293,3.370258,-10.786713
21.220567,11.972483,21.00568,-12.547112,-0.446684,1.196246,-10.508676
21.253956,2.520137,1.486852,-7.133928,-2.327397,1.824297,-18.781387
21.287256,-4.210653,4.30014,-10.161654,1.189811,1.044059,-21.157268
21.320614,1.149707,3.053913,-9.367349,-0.854461,-4.553785,-18.545849
21.354395,1.29905,3.576317,-9.302255,0.214588,-3.386719,-11.502155
21.38771,0.044145,2.676663,-8.696649,-5.910447,-0.038608,-8.954335
21.421066,0.723973,3.34886,-9.064322,-1.182927,1.876223,-9.518788
21.454388,0.577921,3.550877,-9.132709,0.986446,2.607678,-9.797872
21.487708,0.707961,3.580357,-9.246587,1.123519,6.050962,-12.319954
21.521041,-0.065843,3.475009,-9.390693,0.676536,6.128477,-8.848387
21.554391,-0.495169,3.342575,-9.389945,0.459853,4.845588,-8.621229
21.587695,0.387126,3.484137,-9.309886,-0.193189,6.17771,-7.517014
21.621101,0.350164,3.56674,-9.009852,-1.436722,7.165353,-6.358179
21.654366,-0.32278,3.435353,-9.101583,2.505921,12.624029,-6.85664
21.687708,-0.139318,3.722219,-9.181792,2.117298,19.827242,-1.559429
21.721122,0.190047,3.850463,-9.395183,7.988988,22.327027,4.288767
21.754364,-1.422655,6.456195,-11.213345,12.354372,47.285974,-11.083155
21.787706,-0.755098,3.006476,-14.638372,-2.425862,-3.683162,-6.863823
21.821084,-1.699794,11.010279,-14.039801,-0.68716,5.768586,-12.776964
21.85424,-5.711572,-0.294946,-25.317342,0.428727,1.797212,-9.366601
21.887455,-2.193466,6.938943,-15.916473,0.367523,3.371306,-10.457348
21.921021,-0.77949,-2.056543,-9.323055,-0.219975,3.258326,-9.296119
21.954358,-1.384646,-3.72162,-7.82468,-0.801039,2.562785,-8.901062
21.987728,4.195988,1.087755,-8.749473,-1.440164,3.383277,-9.200647
22.021033,4.81117,3.081298,-8.963014,0.353157,3.010666,-9.539139
22.054405,1.034931,3.768309,-10.507628,-0.323528,2.88781,-9.327245
22.087702,-0.621318,5.3228,-11.87731,0.035914,2.997049,-9.215462
22.12104,0.098016,10.03775,-12.163278,-0.75435,3.100901,-9.233568
22.15441,1.151951,8.228117,-8.90615,-0.312454,3.159112,-9.274122
22.187721,-0.644961,-0.122408,-11.824337,-0.670999,3.243212,-9.061629
22.221037,-5.328187,21.895457,-15.198935,-0.729809,3.292145,-9.382463
22.254472,-4.937768,10.565391,-4.938217,0.483047,3.353947,-9.300908
22.287734,-3.55836,13.442725,-1.021014,0.141113,3.595621,-9.776024
22.32104,-1.975287,19.184226,-3.321924,-0.188849,3.74242,-10.159709
22.354421,13.826559,24.546531,19.041017,0.457608,2.791888,-10.077555
22.387686,-10.873655,-1.674056,-13.505725,-1.986061,-0.174633,-9.738613
22.421037,-12.212511,15.05438,-11.989393,-3.687501,8.074284,-12.43907
22.454353,1.095536,2.172816,-3.599661,-1.10631,4.358351,-12.802852
22.487703,2.852344,7.603358,-13.445718,-3.037901,8.736305,-20.970663
22.521038,1.002458,1.537132,-8.429238,-2.392491,-3.837144,-13.292633
22.554382,0.118368,3.756936,-9.485866,-0.801188,-3.03865,-12.98407
22.587286,-0.099064,3.186946,-9.244043,-2.9755,-1.152849,-7.438751
22.620615,1.087605,3.403928,-9.214713,-0.842789,3.213283,-10.009617
22.65394,0.268908,3.498203,-9.391292,0.696887,4.27904,-8.457819
22.687303,0.252448,3.300076,-9.149469,0.014815,5.178095,-9.582087
22.720614,0.207704,3.301123,-9.41329,-1.103168,5.714714,-9.226236
22.753959,0.358694,3.461391,-9.286542,-1.697849,7.781284,-11.250606
22.787287,0.245863,3.38657,-9.275319,-0.764077,7.525544,-9.756122
22.820646,0.284771,3.434156,-9.174459,0.502202,3.210889,-6.727498
22.853922,0.227308,3.562101,-9.200198,1.813373,18.916215,-1.798708
22.887289,0.911326,3.716981,-8.870834,7.914615,22.720139,1.007546
22.920632,-0.359592,5.323249,-11.13583,4.973533,29.930235,-0.478259
22.95396,1.063961,3.266706,-8.689167,9.461924,6.833894,-13.505725
22.987006,-1.670913,-0.85925,-10.183502,3.543545,1.921415,-9.809544
23.020626,1.950297,8.701588,-15.648313,-2.294625,5.006903,-10.714585
23.053951,-1.839561,3.624801,-11.84798,-3.863631,1.942814,-9.175058
23.08728,-1.455427,5.123475,-33.122269,0.96834,2.952455,-9.542731
23.120623,1.220039,7.464639,-19.881113,-0.891423,2.686989,-9.606179
23.153971,2.031403,-1.649664,-8.784789,-0.097418,2.897237,-9.314076
23.187289,5.684337,-4.091537,-7.005235,-0.273098,2.894843,-9.219502
23.220614,7.463292,0.448181,-8.616142,-0.436359,3.213133,-9.300608
23.25375,2.324105,4.485996,-9.0944,-0.533926,3.041643,-9.347147
23.286933,-1.100624,4.209905,-7.596175,-0.157873,3.19338,-9.286392
23.32054,-1.702937,7.718583,-8.829233,-0.172389,3.092671,-9.275917
23.353836,-0.337894,9.831093,-13.197011,-0.076019,3.206549,-9.386204
23.387088,-0.353906,11.746971,-12.175848,-0.156078,3.297083,-9.291031
23.420538,1.684531,4.275598,-7.714244,-0.355252,3.407669,-9.433791
23.453812,0.673393,11.767023,-3.434904,0.005986,3.600559,-9.495294
23.487193,-0.081855,15.225122,-7.968936,-0.128543,3.644105,-9.521781
23.520513,1.398563,20.050808,-12.968806,-0.904292,4.328722,-9.627429
23.553918,0.147398,32.597771,35.218318,-0.911026,5.162382,-10.231388
23.587292,-7.107741,-4.743083,-24.821874,-0.822438,2.689084,-10.061393
23.620589,-10.639763,12.034884,-6.656866,0.647056,4.050236,-12.703788
23.653862,7.914466,5.90536,-6.059492,0.965796,5.445956,-11.92355
23.687313,1.593847,1.328829,-5.219696,0.67893,7.668752,-12.386545
23.720592,-2.519389,4.24148,-14.19513,-4.166658,6.824766,-19.222385
23.753908,-0.413015,5.421265,-8.205222,1.020266,-0.946342,-10.09626
23.787294,0.743875,1.517679,-9.401168,-1.390782,-1.235751,-9.339665
23.820637,0.528988,3.210739,-9.670376,-3.124694,0.310958,-8.796461
23.854198,-0.278037,3.506434,-9.122833,-1.564517,2.231027,-8.817262
23.887314,-0.060755,3.461391,-9.084823,1.393625,3.860189,-10.082343
23.920623,0.458506,3.568835,-9.403712,0.571935,5.190066,-8.629609
23.953925,0.007632,3.34033,-9.184934,0.88439,8.881608,-9.30405
23.987292,0.149793,3.414253,-9.085422,-1.208965,7.77844,-10.558956
24.020625,0.126897,3.649193,-9.315423,-1.339903,11.671851,-10.500446
24.053862,-0.168199,3.353947,-9.266639,-1.209714,11.810869,-7.290155
24.087286,0.005537,3.407669,-8.909891,0.883941,10.256827,-5.307985
24.120627,-0.161465,3.619115,-9.328592,3.978856,15.357407,-5.467355
24.153951,0.07557,3.607293,-9.313328,2.386206,22.765032,-2.553807
24.187314,1.033733,4.328123,-9.455489,-0.197529,21.754044,10.185298
24.220632,-0.159968,4.894522,-9.112208,4.343985,2.257962,-10.964189
24.253959,1.136987,0.368271,-11.849926,1.940719,-2.167129,4.870728
24.287292,-1.215699,6.499741,-13.869956,0.166702,2.389948,-9.742504
24.320629,-1.958377,3.209093,-12.293767,-3.271943,2.136901,-8.684379
24.353958,-1.874577,5.250522,-26.693907,0.225063,3.158963,-9.468358
24.387289,3.195027,11.78094,-18.15139,-0.994527,2.660652,-9.209626
24.420631,1.45423,-1.299799,-4.511436,-0.466138,2.371392,-9.349242
24.45379,2.758518,-6.018639,-5.689574,-0.782034,2.880926,-9.150068
24.486938,3.270896,-0.527192,-9.899779,-0.528689,2.901577,-9.426608
24.520062,1.590106,6.632325,-11.040357,-0.522553,2.743404,-9.327395
24.554454,-1.504061,6.564387,-10.091621,-0.168049,2.966522,-9.436634
24.587283,0.117619,8.546408,-9.588821,-0.830668,2.770789,-9.441422
24.620624,1.685578,7.312153,-10.655476,-0.51118,2.756722,-9.563531
24.653972,4.046046,5.743745,-10.85884,-0.292103,3.079053,-9.359867
24.687249,-1.494035,16.628773,-5.943967,-0.593185,3.048975,-9.403413
24.720624,-1.796763,13.94358,-11.471479,-0.58256,3.442087,-9.461175
24.753949,-2.699559,16.054892,-10.823525,-0.152785,3.3948,-9.256763
24.787721,-2.681602,14.626102,5.114646,-0.361837,3.804373,-9.394584
24.821055,-0.161914,17.248594,6.749944,-0.433516,3.995018,-9.71467
24.854384,4.500063,5.647525,-8.634997,-0.097866,4.328273,-9.855784
24.887706,-3.78028,10.970025,-4.071186,-1.963914,4.197634,-14.380089
24.921064,-1.310723,12.971051,-15.681533,-1.979327,2.505472,-14.220869
24.954379,5.581832,-0.564154,-9.53869,-0.461948,4.710461,-13.08029
24.987706,-1.400957,5.634656,-15.756056,0.270704,3.446576,-18.357448
25.021077,-1.011586,4.014022,-7.948734,-0.71664,-2.790841,-9.047263
25.054379,0.826328,3.013959,-8.39901,2.957094,1.276305,-10.574818
25.087707,-0.216683,2.622792,-8.57918,0.071829,0.293151,-7.719331
25.121097,0.152636,3.764867,-9.946018,0.395656,2.494398,-9.619498
25.154381,-0.008829,3.098058,-8.939071,0.804181,5.172857,-8.942812
25.187727,0.553529,3.5624,-9.208129,0.975971,5.933343,-9.052201
25.221056,-0.138719,3.438346,-9.339067,1.579481,6.693679,-9.653317
25.254453,0.15937,3.644853,-9.302853,1.721343,6.099596,-7.345972
25.287728,0.020501,3.480396,-9.203191,3.066034,9.176554,-9.3672
25.321089,0.047586,3.435054,-9.297765,-2.642246,8.895375,-4.212449
25.353826,0.226559,3.653383,-9.171018,1.005451,7.260975,-4.860403
25.387706,-0.070482,3.516011,-9.188676,4.297147,12.250669,-10.545338
25.421069,0.219227,3.476505,-9.236112,0.299136,11.975326,-4.15334
25.454371,-0.296443,3.517208,-9.195709,4.571143,8.853924,-1.714759
25.487727,-0.077066,3.39061,-9.229827,5.78385,32.73619,-10.051367
25.521078,0.337146,3.484586,-9.200198,3.095664,8.438366,-8.588009
25.554433,0.000898,3.418144,-9.334278,-3.008571,0.436508,-9.0525
25.587744,0.229702,4.348025,-9.472997,0.291355,4.159625,-9.89514
25.621077,-0.799243,4.906792,-10.039994,0.805827,3.136666,-9.327095
25.654365,1.378212,0.732053,-6.833595,-0.580465,3.062293,-9.21606
25.687763,-1.242485,3.08025,-16.159343,-0.524349,3.070823,-9.326048
25.721061,-3.116614,-1.079524,-16.535396,-0.568793,2.960686,-9.607676
25.754434,1.021463,3.219718,-12.883061,-0.115075,3.243212,-9.31273
25.78773,2.196908,-0.709158,-7.581061,-0.217282,3.148637,-9.162937
25.821034,3.283615,-0.563855,-7.9001,-0.212343,3.326413,-9.260055
25.853705,1.525759,4.413719,-8.521418,-0.235538,3.196224,-9.153509
25.887712,0.245714,6.916048,-6.052459,-0.140215,3.272392,-9.184785
25.920862,1.573945,11.250456,-6.566632,-0.62431,3.233784,-9.146925
25.954368,-1.1108,8.803345,-9.457883,-0.677434,3.201611,-9.223991
25.987731,-3.72985,9.838276,-6.68889,-0.199175,3.245157,-9.236262
26.020635,-3.387168,9.749837,2.92133,-0.376502,3.195176,-9.289535
26.053956,-2.125528,8.039567,-12.698102,-0.359293,3.116314,-9.277414
26.087283,-0.610394,12.681492,-18.711055,-0.083201,3.127089,-9.373036
26.120604,-0.368421,-1.968254,-2.75373,-0.560263,3.054063,-9.42571
26.153956,0.84249,6.752189,-12.988858,0.091133,3.306959,-9.063724
26.187141,0.595429,3.197271,-8.86844,-0.504446,3.105241,-9.147374
26.220528,-0.675039,2.739663,-7.534672,-0.90115,2.976398,-9.181942
26.253958,-0.060605,3.389562,-8.49942,-0.32697,3.246055,-9.205136
26.2873,-0.124353,3.395847,-9.545275,-0.448031,3.0177,-9.457734
26.320533,0.622515,3.496856,-9.116847,-0.339091,3.199665,-9.231324
26.353544,0.356449,3.309952,-8.896124,-0.097118,3.139509,-9.102481
26.387334,-0.426931,2.956047,-8.634398,-0.557869,3.03027,-9.263497
26.42053,0.228505,4.147953,-10.36876,-0.722925,3.178416,-8.801699
26.453974,0.114028,3.107485,-8.458418,0.765124,3.316537,-9.051453
26.48728,-0.436209,3.603103,-9.533453,-1.558082,2.644041,-9.386653
26.520397,-0.196481,3.75918,-9.640896,0.462097,3.155371,-9.017783
26.553956,0.725469,3.46169,-8.850482,-0.529736,2.845311,-9.447707
26.587295,-0.764077,3.581704,-9.4929,-1.069797,3.353947,-9.327095
26.620994,-0.191842,3.659069,-9.747742,-0.659028,3.299328,-9.282801
26.65395,-0.158023,3.349757,-9.52208,0.017957,2.826606,-9.299411
26.687281,-0.732053,3.243661,-9.018382,0.198875,2.621894,-9.621293
26.720564,1.582773,4.312859,-9.512802,-0.017059,3.425477,-9.169372
26.753892,-1.557334,3.309653,-9.19945,-0.076767,3.283017,-9.313927
26.787273,0.378896,3.714138,-9.515346,-0.972679,3.142203,-9.140939
26.820528,0.221472,3.312945,-9.080484,0.484394,3.030868,-9.06941
26.853956,0.081705,3.584996,-9.311083,-0.644063,2.933002,-9.085422
26.887293,-0.124653,3.487728,-9.218454,-0.020351,3.35694,-9.313029
26.920609,-0.05432,3.523942,-9.314974,-0.653341,3.384026,-9.328741
26.953956,-0.136025,3.581255,-9.36271,-0.243918,3.41171,-9.266939
26.987274,-0.144106,3.543695,-9.550063,-0.091581,3.287955,-9.057738
27.020607,-0.04624,3.705309,-9.206333,-0.374257,3.170186,-9.211122
27.053948,-0.181667,3.259523,-9.06926,-0.448181,2.990165,-9.359867
27.087261,-0.298388,3.763221,-9.364356,-0.381889,2.906066,-9.289684
27.120615,0.042199,3.42009,-9.06941,-0.474518,3.128136,-9.294024
27.153948,0.052076,3.678972,-9.310335,-0.182864,3.010367,-9.23701
27.187298,-0.170593,3.537859,-9.170569,-0.393411,3.145195,-9.35463
27.220629,0.05881,3.572576,-9.169072,-0.092629,3.128585,-9.291331
27.253966,-0.140066,3.550279,-9.282053,-0.392065,3.038799,-9.308091
27.28729,-0.119415,3.525887,-9.200497,-0.257984,3.083094,-9.272625
27.320623,-0.035765,3.584846,-9.236112,-0.331758,3.049723,-9.290882
27.353974,-0.210099,3.500597,-9.250628,-0.514921,3.157167,-9.200198
27.38729,-0.077066,3.581405,-9.201994,-0.163709,3.132476,-9.258708
27.420628,-0.122109,3.485484,-9.194212,-0.347172,3.171233,-9.244343
27.453967,-0.03786,3.605348,-9.260953,-0.312305,3.245007,-9.15755
27.487288,-0.018406,3.545191,-9.181792,-0.082004,3.094317,-9.328891
27.520628,-0.088888,3.523194,-9.20364,-0.32263,3.125742,-9.294174
27.553952,-0.026636,3.569732,-9.231773,-0.257536,3.183654,-9.249281
27.587298,-0.115674,3.56659,-9.222495,-0.513724,3.153725,-9.225188
27.620624,-0.26397,3.523194,-9.185832,-0.385181,3.173179,-9.267837
27.653979,-0.033819,3.565991,-9.207979,-0.531831,3.137863,-9.204687
27.687284,-0.213989,3.509576,-9.210374,-0.42349,3.189939,-9.235663
27.720613,0.029779,3.610136,-9.244343,-0.342832,3.16854,-9.24135
27.753718,-0.077066,3.598913,-9.261851,-0.195284,3.228996,-9.23297
27.787291,-0.020202,3.54998,-9.149768,-0.34358,3.073816,-9.326646
27.820632,-0.115824,3.57093,-9.273224,-0.419599,3.145944,-9.260205
27.853962,-0.140814,3.539505,-9.183737,-0.461948,3.129184,-9.178051
27.887295,-0.15488,3.567189,-9.244941,-0.433067,3.16435,-9.235663
27.920619,-0.140664,3.57931,-9.268435,-0.342084,3.098208,-9.278461
27.953967,-0.04175,3.539804,-9.157849,-0.368421,3.142203,-9.284746
27.987262,-0.075869,3.568236,-9.240302,-0.275642,3.099554,-9.287141
28.020618,-0.101308,3.538457,-9.226386,-0.46509,3.162853,-9.171317
28.053961,-0.142161,3.553571,-9.247934,-0.191244,3.098507,-9.261402
28.087198,0.036513,3.538906,-9.219801,-0.415858,3.170485,-9.288936
28.120619,-0.130489,3.525737,-9.203191,-0.233144,3.179913,-9.277264
28.153954,-0.03786,3.554918,-9.244941,-0.483796,3.239321,-9.199749
28.187194,-0.15937,3.504339,-9.198851,-0.200372,3.142801,-9.254219
28.220626,-0.023045,3.573922,-9.277863,-0.371264,3.19772,-9.193763
28.253966,-0.134679,3.491619,-9.154258,-0.452071,3.247402,-9.135702
28.28729,-0.102655,3.514065,-9.200348,-0.252747,3.168839,-9.23701
28.320617,-0.060007,3.571229,-9.249131,-0.357497,3.118709,-9.275319
28.353957,-0.091881,3.453759,-9.16174,-0.287614,3.23962,-9.197804
28.38729,0.028283,3.489075,-9.191369,-0.310359,3.226302,-9.294323
28.420636,-0.08365,3.418294,-9.139742,-0.38129,3.18081,-9.21621
28.453959,0.02095,3.562699,-9.353133,-0.150391,3.255931,-9.254668
28.487295,0.055518,3.385971,-9.181044,-0.260828,3.184851,-9.215013
28.520635,-0.132883,3.540103,-9.38815,-0.46105,3.321176,-9.118493
28.553957,0.011672,3.542797,-9.436035,-0.255291,3.129483,-9.288787
28.587292,0.103553,3.615224,-9.392489,-0.367224,3.241266,-9.174459
28.62053,0.090085,3.494761,-9.236412,-0.11747,3.168689,-9.240003
28.653965,0.038608,3.486381,-9.219352,-0.401791,3.181559,-9.269183
28.687266,0.103403,3.546538,-9.259157,-0.187054,3.143849,-9.340713
28.72061,-0.095323,3.794347,-9.787696,-0.517914,3.179763,-9.224141
28.753964,-0.150541,3.836995,-9.973104,-0.240626,3.2272,-9.197953
28.787351,0.493074,3.06379,-9.537493,-0.568793,3.053165,-9.199151
28.820627,-0.31844,3.951172,-10.545338,0.027983,3.189041,-9.359418