time_tick,acc_X_value,acc_Y_value,acc_Z_value,acc_A_value,acc_B_value,acc_C_value
0.009857,1.687823,4.054576,-8.924256,-1.728077,3.631086,-8.933534
0.036453,1.765338,3.951472,-8.8014,-1.713861,3.673585,-8.903306
0.069802,1.729723,3.982148,-8.829832,-1.659989,3.604899,-8.930541
0.103107,1.737205,3.988284,-8.870235,-1.672709,3.63378,-9.028109
0.136446,1.732117,3.976462,-8.85153,-1.688421,3.67957,-8.982019
0.169856,1.715058,3.993222,-8.874276,-1.73915,3.514963,-8.869637
0.20315,1.720295,4.039162,-8.903905,-1.800055,3.585146,-8.924705
0.236469,1.723587,3.986039,-8.848387,-1.754564,3.605348,-8.939969
0.26979,1.7604,4.011927,-8.916176,-1.788682,3.56659,-8.859311
0.303176,1.699345,3.98574,-8.874126,-1.833575,3.540552,-8.858414
0.33647,1.723139,4.032578,-8.882955,-1.698597,3.704112,-8.974686
0.369779,1.715058,3.941446,-8.869188,-1.742442,3.572127,-8.877568
0.403192,1.699794,4.113834,-8.907496,-1.810979,3.76786,-8.928596
0.436502,1.709671,3.986338,-8.902409,-1.755012,3.524091,-8.840157
0.469801,1.689918,3.958804,-8.869786,-1.871135,3.630787,-8.837613
0.503138,1.698597,3.973768,-8.815765,-1.657595,3.52888,-8.791673
0.536475,1.715806,4.030633,-8.897919,-1.667621,3.680019,-8.874276
0.569805,1.687224,3.948329,-8.880112,-1.700094,3.63797,-8.800651
0.603135,1.686925,4.059963,-8.94805,-1.594745,3.492966,-9.03185
0.636474,1.646521,3.986338,-8.873527,-1.448394,3.995018,-9.240602
0.669804,1.721343,3.867522,-8.876221,-1.825494,3.479797,-8.894926
0.703249,1.611804,3.89775,-8.92276,-1.645474,3.786116,-8.931739
0.736525,1.51289,3.469921,-8.73017,-1.440014,3.742121,-8.971244
0.769812,1.507802,3.82218,-8.96047,-1.670764,3.116314,-8.573344
0.803196,1.530847,4.1912,-9.131362,-1.625871,4.23729,-9.170269
0.836473,1.737654,3.951472,-8.986658,-1.96571,3.748406,-9.244792
0.869802,1.653106,3.974068,-9.028258,-1.60537,3.343173,-8.864699
0.90311,1.639189,4.047842,-8.979924,-1.888195,3.291995,-8.735257
0.936474,1.390931,3.079053,-8.428639,-1.68917,3.548334,-9.198402
0.9698,1.655949,4.051882,-9.213067,-1.89837,3.63378,-9.072403
1.003108,1.660139,3.731048,-9.019429,-1.70593,3.678373,-8.971693
1.036444,1.856171,3.725062,-9.118792,-1.891636,4.105454,-9.260654
1.069862,1.627816,3.46199,-9.030353,-1.964962,4.184166,-9.328442
1.103112,1.615545,3.301722,-8.920366,-1.507204,3.640963,-8.909142
1.136438,1.8231,3.13921,-9.011498,-1.200885,3.831907,-9.317368
1.169756,2.147077,4.483901,-9.634013,-1.708025,4.297745,-9.842615
1.203113,1.831031,4.169202,-9.281304,-2.516097,3.113621,-9.489607
1.236511,1.61794,4.355059,-9.880924,-5.781904,1.291718,-13.177558
1.269809,1.753366,3.025631,-9.232671,-6.176513,-1.531296,-10.835945
1.303087,2.050557,5.249325,-10.466926,-5.236755,-2.386805,-10.618215
1.336424,2.063876,5.007053,-9.895888,0.52809,-4.508293,-12.239746
1.369773,1.193403,3.718927,-8.576785,1.601928,-3.969728,-13.628133
1.403107,1.667621,2.92971,-8.386589,-0.520757,-2.08722,-12.697204
1.43642,2.122536,4.20362,-8.934731,-2.783808,-1.588759,-11.480158
1.469773,2.121787,3.883384,-8.725531,-4.936721,-1.950596,-11.406983
1.503109,1.77686,3.167941,-8.498073,-4.343387,1.380456,-11.364185
1.536441,1.812326,4.804586,-9.533752,-4.034823,3.115716,-7.398946
1.569809,1.815169,4.129547,-8.901361,-2.430501,6.747849,-9.301806
1.603112,1.61375,3.241117,-8.488047,0.798794,7.802084,-8.154942
1.636439,1.698298,3.875902,-8.900912,0.066591,9.558593,-6.496
1.669799,1.79781,4.054576,-8.720293,-1.68049,10.43161,0.445487
1.703178,1.772521,3.670293,-8.612401,-1.648616,12.413032,-1.944909
1.736487,1.8442,3.454058,-8.769077,1.100175,-7.851616,-10.303515
1.769816,1.683334,3.805121,-9.069859,1.239493,23.371984,-24.744509
1.803109,1.370729,3.975115,-8.627215,-4.975778,2.751635,-9.319314
1.836441,0.519261,2.027063,-7.958311,-3.061545,3.020244,-10.554916
1.869815,0.09637,3.432809,-8.626018,-5.188271,4.085402,-11.821344
1.903089,9.198253,9.657656,-23.924615,-3.628393,1.150754,-8.739447
1.936439,5.285389,-8.736903,-29.324032,-0.986895,3.127687,-10.927527
1.969749,-7.157721,-6.08119,-14.581059,1.339304,2.749689,-10.476353
2.003106,4.075825,-2.723502,-14.812706,-0.451622,1.274659,-9.000125
2.036444,1.370729,1.075634,-12.287931,-3.215528,1.239792,-9.005812
2.069764,2.306896,2.985377,-12.558335,-1.574992,-0.760785,-7.386825
2.103128,4.398605,3.36981,-10.481142,-0.696139,1.177989,-8.840606
2.136443,8.336309,4.252404,-9.726792,-1.786886,3.136067,-10.662509
2.169842,2.026914,8.666871,-11.138972,-0.81735,1.107507,-8.705927
2.203139,-3.128286,13.3483,-8.615842,-2.142887,1.654602,-9.188975
2.236483,-1.386143,13.635615,-8.784191,-2.386356,2.432596,-9.451
2.269897,-1.863055,11.027338,0.326521,-0.595878,1.784791,-9.190172
2.30309,-0.320535,15.540121,-3.292294,-1.540724,3.075462,-9.829297
2.336435,0.174184,20.350244,19.085461,-1.960622,2.686989,-9.896187
2.368962,6.488518,5.642886,-42.671135,-1.60522,1.522018,-8.999676
2.403177,0.88439,10.51137,-20.708788,-4.078668,-0.032921,-8.336309
2.43644,7.208301,7.552629,-15.120073,-2.33862,0.790115,-9.929408
2.470139,3.170784,3.305762,-9.775276,-8.31491,1.952541,-16.553802
2.503162,3.208644,2.012548,-8.550748,-8.576337,-0.063898,-15.406041
2.536444,0.995575,3.075761,-10.782074,-8.111845,-2.323356,-11.608851
2.569755,1.767882,0.635384,-7.145002,-5.433685,-2.016139,-10.96359
2.603084,3.175124,2.632519,-9.503524,-4.156183,-1.684231,-10.140255
2.636485,3.661314,2.119692,-9.147823,1.394523,-1.11499,-8.903306
2.669771,3.645302,0.865236,-7.579565,3.029073,-0.739535,-10.604447
2.703109,3.558509,2.514002,-9.319164,1.274359,-0.199923,-11.315551
2.736466,4.301935,1.367437,-8.062612,0.845333,-1.057227,-8.41577
2.769781,5.164627,1.874876,-8.420109,-0.774402,-0.732353,-10.543543
2.803106,3.247102,2.622642,-9.495444,-5.788189,4.176086,-16.288635
2.836461,4.960065,0.10909,-6.222004,-4.210204,1.424152,-7.765721
2.869781,4.482554,1.727777,-8.016672,-3.325665,5.502222,-12.447749
2.903105,3.071721,3.095364,-9.51774,-0.272201,11.804285,-19.195898
2.936531,0.855359,4.682477,-11.139421,1.371178,6.865469,-6.930563
2.969808,1.620483,4.704026,-10.179761,1.905853,12.731173,-5.94696
3.003109,1.866496,3.577364,-8.983216,1.136089,12.817367,1.880264
3.036479,2.226986,3.410662,-8.667619,-2.915344,14.489178,2.931954
3.069777,2.107871,4.500362,-9.399223,-2.370793,-5.62867,-11.150195
3.103105,1.776561,3.391358,-8.749922,-1.130104,13.572166,-13.331092
3.136439,0.332656,0.615332,-7.586748,8.488795,8.842252,-16.199298
3.169825,11.778247,23.226381,-13.811296,-1.94476,5.314869,-12.364099
3.203104,1.264633,4.821346,-9.54737,-3.358437,2.897686,-9.733226
3.236442,-3.273439,-13.636513,-41.785997,0.62012,4.419256,-10.939498
3.269767,11.958118,6.293084,-41.626627,0.376053,2.999294,-10.031764
3.303141,3.776988,-3.077856,-11.805033,-2.122835,2.718713,-9.183887
3.336446,2.723202,-2.599148,-6.804564,-2.385309,2.667535,-8.918271
3.369768,5.024112,2.223096,-11.155582,-1.195946,1.836119,-8.366836
3.403126,3.938153,4.023749,-9.725594,-0.40643,3.987236,-9.853389
3.436465,5.906557,6.033304,-12.112549,-1.147312,2.957543,-9.420472
3.469795,8.263583,11.927141,-20.434493,-1.66373,3.690195,-9.535249
3.503127,8.296055,19.917327,-9.716616,-0.996772,3.62929,-9.490805
3.536513,2.038137,26.760199,-12.428296,-0.76692,3.381482,-9.394285
3.569742,-0.604109,32.273943,1.002159,-0.663517,2.910106,-9.226535
3.603083,0.828274,26.243333,21.260522,-1.310723,2.790093,-9.109664
3.636438,-13.917692,-2.256167,-23.117142,-1.399461,3.630188,-9.660051
3.669216,2.531061,12.62343,-9.469555,-2.733977,3.216276,-9.846656
3.703119,11.666613,13.454248,-21.530627,-2.379622,1.390333,-11.02255
3.736466,0.799692,5.236156,-13.543435,-0.793706,0.472423,-12.6152
3.769773,0.705417,3.241566,-10.070671,-10.277029,4.482854,-13.85155
3.803145,1.634101,3.550728,-9.175956,-16.627576,12.362453,-27.042725
3.836467,2.070609,3.509875,-9.121037,-7.22117,-5.485761,-14.908328
3.869786,2.18763,3.618217,-9.277114,-5.710973,-5.37697,-9.742055
3.903095,1.55898,3.476655,-9.162488,-3.190238,-4.05712,-11.160371
3.936486,1.927102,3.327461,-8.893729,-1.599533,-1.414724,-12.788337
3.969772,2.046218,3.412308,-8.892831,-0.928684,0.406879,-12.07858
4.003136,1.846145,3.479199,-8.911387,-0.643764,2.38905,-11.852619
4.036475,2.213818,3.590683,-9.046365,-3.239919,6.072062,-15.295754
4.06978,1.980674,3.882935,-9.511904,-4.140022,8.911537,-18.751907
4.103147,1.815169,3.957457,-9.14079,-4.042754,16.313625,-18.775701
4.136461,1.99489,4.13254,-9.388598,2.096198,25.887332,-13.775232
4.169773,1.982021,3.928876,-8.594144,3.202359,26.980923,11.738292
4.203079,2.075248,3.903287,-8.742889,5.077984,31.891007,15.114087
4.236448,1.935033,3.26491,-8.761146,-3.845375,-6.040188,-29.654743
4.269774,-0.760485,-0.558019,-7.299583,4.286223,13.375984,-23.605726
4.303113,-1.796314,4.15319,-13.300265,-3.473961,5.251719,-11.609599
4.336499,2.302406,4.276945,-9.799668,-5.074093,8.069646,-13.520689
4.369771,19.690019,-6.974409,-31.399729,-2.452498,4.519816,-10.259072
4.403105,18.498412,2.091859,-27.93355,-0.378148,3.872011,-10.116611
4.436462,4.531039,-0.587498,-12.470944,-0.535572,3.844327,-9.730682
4.469887,1.063363,0.526444,-8.561821,-1.16108,3.405724,-9.134505
4.503132,2.856684,2.717815,-10.812002,-1.446449,3.267603,-9.020028
4.536471,6.115009,5.488155,-13.689486,-1.536833,3.357539,-8.939221
4.569776,4.707617,7.2294,-7.354951,-1.344392,3.723117,-9.180146
4.603091,6.931611,11.511134,-18.293102,-1.349181,3.558958,-8.635745
4.636497,8.806338,15.228265,-14.37515,-1.457073,3.021291,-8.843
4.669773,-1.06022,20.576204,-19.817814,-1.28663,3.280323,-8.908843
4.703147,-3.796142,26.117333,-12.102673,-1.350228,3.898498,-9.127172
4.736135,-5.546665,24.443577,8.872181,-1.688421,3.814548,-9.032149
4.769773,-0.910727,23.29387,11.435415,-1.536534,4.063255,-9.102332
4.802424,-3.718777,16.124177,0.070183,-1.472337,3.207297,-9.423316
4.836423,5.302598,3.791054,-2.410898,-1.765188,4.340094,-10.152675
4.869786,-1.933537,6.637263,-14.050425,-0.621617,-0.658279,-10.604148
4.903162,7.782481,6.084333,-15.238889,0.834858,2.478237,-12.936034
4.936418,5.577492,3.145644,-10.360829,-4.905296,-1.946705,-19.040868
4.969829,-1.125914,3.747209,-10.584695,-4.254948,-1.078028,-14.109534
5.003088,2.716768,2.613065,-9.360915,-11.993733,18.990289,-25.206307
5.036283,2.427358,1.481764,-8.021012,-8.281989,-3.448522,-12.759605
5.069802,1.145666,3.717131,-10.9594,-3.78432,-4.509789,-5.958333
5.103115,1.988156,3.431911,-9.574006,-4.823441,-0.346723,-9.592263
5.136431,1.917974,3.806917,-9.772433,-5.714415,2.169075,-11.502754
5.169789,2.026315,3.15178,-9.407154,-3.510324,4.041257,-11.586255
5.203097,2.465517,4.159176,-10.14669,-5.384303,5.199045,-10.270744
5.236431,1.704882,3.100752,-8.546857,-5.154451,9.631319,-16.733823
5.269852,1.997883,3.312496,-8.903007,-9.642842,16.63027,-21.23613
5.30313,2.37199,3.522146,-8.996235,-3.885928,17.654127,-10.516308
5.336413,1.926054,3.371007,-8.781647,-0.513275,28.29374,-1.439565
5.369864,2.167129,3.669544,-9.097393,2.587626,26.954735,17.872755
5.40311,2.612467,3.92289,-9.111909,0.12974,18.581015,11.976823
5.436437,1.612702,1.357561,-8.673455,8.337506,9.025265,-7.900699
5.469773,2.739513,3.998908,-11.42464,1.909893,8.088501,-13.739617
5.503153,0.528988,5.143078,-12.67386,-12.375621,4.7359,-11.312259
5.536439,1.131001,-4.920709,-25.206157,-2.227286,4.638931,-10.543842
5.569774,15.543563,4.231154,-38.342863,-0.357796,4.247465,-10.245155
5.603115,12.446702,0.371414,-16.255115,-0.555924,4.365983,-10.1425
5.636426,4.53478,-3.283316,-8.643975,-1.06456,3.848068,-9.423016
5.669774,3.216126,0.520009,-10.414551,-1.310872,3.316836,-8.953437
5.703118,2.268138,4.540167,-15.743037,-0.910428,3.644853,-9.177452
5.736325,0.035465,7.135275,-9.98732,-0.972081,3.780579,-9.143483
5.769772,4.05278,8.447793,-13.253726,-0.996921,3.217623,-8.969598
5.803082,8.551346,10.704259,-20.512906,-1.16093,3.486082,-8.915727
5.836439,2.708537,23.396675,-16.327392,-1.125315,3.623903,-9.042325
5.869797,-1.356064,26.926752,-0.512377,-1.236051,3.110478,-8.962415
5.903197,-0.819145,25.032571,5.165226,-0.766022,3.96913,-9.43424
5.936441,-3.661015,21.521349,16.784851,-1.125165,4.072084,-9.157849
5.969846,-4.021056,-1.920218,-11.626359,-1.758305,2.98822,-9.655861
6.003104,-2.364508,23.177747,-33.887842,-3.679121,3.254584,-9.977743
6.036442,13.553461,8.125612,-18.072379,-0.957416,-0.605306,-11.144658
6.069774,-4.727819,5.802705,-12.74898,-11.867284,10.007971,-13.797978
6.103018,-0.339241,3.825023,-10.515111,-6.471758,-0.092779,-12.620288
6.136475,2.313031,3.205801,-9.159345,-19.322496,0.723224,-18.029282
6.169764,1.581726,3.279276,-9.049358,-10.146241,-2.517743,-14.636577
6.203107,1.795117,3.219568,-9.317817,2.540488,-4.087497,-10.259371
6.236476,2.134357,3.291995,-9.227433,5.496385,-1.227222,-11.201523
6.269777,1.973641,3.878147,-9.409399,-0.956667,2.073153,-13.380474
6.303106,1.910791,3.191285,-8.88101,-4.818353,3.325066,-11.311061
6.336428,3.207597,4.51787,-9.506367,-9.530161,7.729208,-5.554297
6.369786,2.374385,2.746996,-8.389881,7.472869,14.022592,-20.251779
6.403104,2.05774,3.565991,-9.267537,-8.809929,12.581829,-18.014317
6.436432,2.275171,3.709649,-9.27891,-0.38144,16.438278,-13.845115
6.469775,2.112809,3.388665,-8.853026,0.125401,24.675823,-12.926158
6.50313,1.966608,3.752746,-8.576636,8.254904,31.065726,9.640896
6.536438,2.42227,4.482255,-8.814418,1.672709,21.804474,18.641471
6.569773,2.081533,2.43903,-7.104897,2.922976,-9.117146,-27.696665
6.603136,5.447003,6.578603,-10.934859,6.827908,22.053929,-26.827389
6.636439,1.188764,5.318909,-12.320702,-9.053548,9.300758,-15.166911
6.669808,2.766449,4.28308,-9.44666,-3.352301,6.682156,-11.9234
6.70317,13.254175,5.22194,-27.335127,-3.573474,4.772413,-10.135915
6.736448,24.924829,8.781198,-28.808063,-0.837252,4.304779,-9.889154
6.769844,5.79612,-2.761062,-6.7266,-0.065244,4.657786,-10.236924
6.803112,0.498461,1.115439,-7.204111,-1.346338,3.310252,-8.975135
6.836438,2.408803,4.017015,-13.191624,-1.901513,3.079353,-8.738699
6.86931,5.478578,6.580399,-13.227988,-1.26972,3.555367,-9.060282
6.902531,10.85061,7.208151,-5.998886,-1.572298,3.508678,-9.085272
6.93644,5.07948,16.659151,-10.419189,-3.155072,6.782267,-11.401745
6.96974,6.650133,20.450205,-17.058997,-1.242336,4.746375,-9.952453
7.003112,-5.975393,18.018058,-11.012075,-1.087904,3.485334,-9.106073
7.036434,-6.368205,33.258893,-3.650839,-1.991149,3.464085,-8.937126
7.069831,4.62292,23.837822,12.298256,-1.549253,4.286223,-9.418527
7.102581,8.646968,23.49065,26.81437,-1.318354,4.202423,-9.627578
7.136496,-21.624902,3.766214,-10.597414,-2.808349,3.870964,-9.616205
7.169767,4.313458,8.75531,-21.365272,-1.308628,-3.455854,-9.852641
7.202922,16.297464,7.247956,-9.251675,-3.769207,3.266706,-10.907774
7.23643,1.501966,3.374598,-9.53031,-7.926587,9.951106,-20.689484
7.269773,-0.500107,4.653896,-11.220827,-0.328616,-11.5044,-14.703317
7.303116,1.965111,3.62106,-10.33494,-10.047327,18.59164,-28.20141
7.336425,2.0326,2.572961,-8.283485,-2.394886,-6.360723,-9.804905
7.369774,1.705481,3.485334,-9.318865,-5.847149,-1.520223,-11.28233
7.403209,0.836504,3.232138,-9.356575,-6.43749,-0.307816,-11.50006
7.436442,1.534738,2.966073,-9.121935,-6.506475,2.511757,-12.94636
7.469767,1.598935,2.929261,-8.774015,-5.387146,4.616036,-11.773009
7.503164,1.89448,3.228846,-8.841654,-6.113214,7.029477,-13.810248
7.536501,1.943263,3.791803,-9.208728,-5.152057,9.836031,-17.272387
7.569778,2.234618,3.131279,-8.716702,-4.711209,14.198721,-15.07952
7.603091,2.056693,3.703064,-9.019429,3.55836,25.223366,-11.582663
7.6365,1.865748,3.49551,-9.118194,-0.065993,25.825978,7.947387
7.669779,2.284749,3.768309,-8.916026,-0.44025,26.572248,15.471435
7.703078,2.1164,2.864316,-8.021311,2.654217,-7.681023,-25.742178
7.736471,0.793257,0.865385,-6.967076,6.420431,20.72076,-21.088133
7.769767,-1.610457,3.816643,-15.212552,-3.240518,6.287398,-11.605409
7.803114,1.812625,4.117426,-9.293126,-3.303218,7.052223,-12.370683
7.83644,2.631621,-7.656781,-37.738305,-0.191094,5.228674,-11.162765
7.869742,17.142348,6.982639,-31.060638,0.093228,4.19539,-10.180659
7.903112,5.849393,-1.222433,-11.223371,-1.285134,3.157616,-8.885349
7.936464,2.873893,-1.41233,-7.624158,-1.327782,3.473213,-9.053249
7.969764,2.05789,2.681302,-11.218133,-1.383748,3.371306,-8.91004
8.003322,2.74939,5.32669,-13.515751,-1.578284,3.47875,-8.971095
8.036041,2.518491,6.914552,-10.480244,-1.495232,3.407968,-8.932636
8.069761,5.490849,7.842188,-15.308922,-1.013681,3.732095,-9.084225
8.103397,8.639486,16.785898,-24.643051,-1.238445,4.014322,-9.156203
8.136426,-3.075163,27.337372,-12.193057,-1.070695,3.594573,-9.071355
8.169775,2.17536,25.562307,5.820063,-1.363397,3.74257,-9.088714
8.203084,3.333746,24.6013,13.090316,-1.211809,4.082409,-9.159645
8.236441,-7.310357,15.602522,16.824805,-0.983603,3.674034,-9.71901
8.269777,-16.364653,21.058504,-18.691003,-2.339817,3.605796,-10.138459
8.30308,8.771022,8.226322,-20.096898,-2.99226,-1.507802,-10.4358
8.336443,-2.602291,7.330559,-14.919851,-2.155307,3.778335,-12.857771
8.369774,1.120826,4.005942,-9.164882,-5.899374,-1.484458,-15.453328
8.403114,1.744837,3.428619,-9.384857,-8.112743,-13.241755,-18.684269
8.43644,1.926952,3.269249,-9.565028,-15.712958,0.030527,-18.226511
8.469772,1.595643,2.885266,-8.821152,-3.572725,-4.250758,-8.30234
8.503113,2.011201,3.231689,-8.815616,-2.655863,-2.528966,-9.10697
8.536441,2.102034,3.257877,-8.966306,-3.566291,-0.470477,-10.908073
8.569819,1.886698,3.339582,-9.14917,-3.538607,1.175894,-10.978704
8.603108,2.118196,3.268501,-8.821152,-4.098271,2.406857,-10.599958
8.636436,2.376929,3.478301,-8.935929,-4.210354,4.594188,-12.891291
8.669776,2.126127,3.008422,-8.657742,-5.842061,9.50966,-17.908669
8.703127,2.483923,4.188955,-9.599146,-5.300054,12.537086,-15.927397
8.736443,2.211573,3.54145,-8.892981,-5.66219,23.415829,-14.609641
8.76978,2.275471,3.85166,-9.149918,-3.268651,20.437485,0.380692
8.802196,2.306147,3.76771,-8.794366,4.731261,27.780166,13.687691
8.836443,2.416584,3.904783,-8.289471,-1.465154,22.278393,18.476564
8.869768,-0.171042,-0.961306,-5.880519,11.111887,15.736153,-13.853645
8.903149,8.760248,10.167939,-12.713066,-4.322437,6.239812,-12.11225
8.936454,3.502692,3.529479,-10.344218,-14.933319,6.695025,-12.826196
8.969773,6.776431,-1.903159,-31.009909,-1.168861,4.891379,-10.516308
9.003148,16.576997,4.357752,-33.925104,0.581363,4.503953,-10.350803
9.036495,2.363461,-3.70471,-9.39219,-0.844734,3.699623,-9.386653
9.069774,-0.954273,0.203963,-8.645472,-1.685279,2.672623,-8.528002
9.103172,-0.930779,2.401021,-9.56383,-1.807088,3.460643,-8.863801
9.136432,2.594659,6.442578,-14.046834,-0.970584,3.589336,-9.131512
9.169871,3.501795,6.344113,-8.573044,-1.106759,3.138761,-9.09874
9.203081,5.044314,10.656822,-19.118233,-1.150156,3.753943,-9.088265
9.236528,6.981143,17.717725,-21.275336,-1.348133,3.867073,-9.049208
9.26986,13.085976,22.379252,-13.292334,-1.36639,3.536961,-8.913033
9.302674,5.969407,21.329806,-2.433045,-0.911625,4.301038,-9.206034
9.336519,-3.588737,32.357294,13.445868,-1.21121,3.965987,-9.44232
9.369865,-6.637563,26.299,23.906209,-0.736992,3.607293,-9.408052
9.403034,-5.001666,0.423639,-0.632241,-2.486467,3.962246,-9.940631
9.436486,-2.71991,10.616269,-18.861296,-2.297319,-1.253858,-9.881822
9.469797,13.691432,5.62448,-16.179246,-0.811214,2.906216,-11.512481
9.503114,4.559621,4.244024,-11.967994,-11.91532,16.100384,-16.260951
9.536473,0.243619,2.522082,-9.533602,-4.37541,-1.317756,-25.625756
9.569777,2.449655,2.433943,-9.359119,-7.209049,-5.069454,-13.341866
9.603109,2.616806,2.197806,-8.955681,-5.174653,-3.445828,-9.188077
9.636524,2.164885,2.176706,-8.768328,-5.700947,-2.215464,-9.821964
9.669828,2.318119,2.313181,-9.098291,-3.856448,-0.666659,-10.889966
9.703108,2.419427,3.548633,-10.084289,-3.379087,1.432233,-12.064214
9.736427,2.052054,2.677262,-9.020477,-1.653405,3.944289,-12.852234
9.769825,2.3678,3.060797,-9.380518,-1.561225,4.776154,-12.616696
9.803143,2.240005,2.644939,-8.789578,-2.819423,6.626639,-13.93101
9.836446,2.063127,2.558595,-8.726129,-3.866474,12.90416,-20.474148
9.869785,2.010902,2.845161,-8.70488,-0.705866,17.647093,-13.829851
9.902589,2.895441,4.085402,-9.542132,-1.736457,17.951916,-8.555835
9.936449,2.433793,4.139124,-9.722153,4.780943,23.035586,8.984263
9.969777,2.393539,3.531574,-8.816065,0.051328,19.980177,6.212577
10.003152,2.743853,3.720273,-8.535484,5.904611,-5.144575,-15.048394
10.036445,0.037261,0.80867,-7.613683,4.273952,9.476738,-11.289214
10.069765,19.104167,19.572699,-13.32331,-6.533261,7.700925,-12.372778
10.10313,1.017722,4.421351,-8.799753,-8.615543,6.96962,-12.124371
10.136427,0.117769,3.985441,-8.617638,-2.610072,5.563725,-11.691603
10.169872,11.448883,5.986316,-28.961746,-0.231647,4.888685,-10.559255
10.203122,16.440073,7.715141,-15.115733,-0.524798,4.008186,-9.727091
10.236444,3.748855,-2.221599,-2.676065,-0.856706,3.421436,-9.19526
10.269759,-0.688806,0.408525,-3.078604,-1.309825,3.273439,-8.917074
10.303097,2.349544,5.425305,-14.099358,-1.147163,3.484735,-9.068812
10.336442,2.432296,8.73436,-13.983236,-2.285497,2.676065,-8.656844
10.369825,3.986488,1.176642,-7.691498,-1.670913,1.374321,-8.346186
10.402474,5.023663,13.282158,-22.963159,-1.373573,1.034182,-7.540508
10.436463,8.557182,20.404863,-20.443621,-2.015242,2.532408,-8.443603
10.469745,0.596626,21.946784,-5.374875,-0.972829,4.135233,-9.434838
10.50313,0.527192,21.974618,6.893003,-1.304587,4.035571,-9.291181
10.536437,2.010154,23.083322,16.47524,-1.607465,3.837444,-9.041277
10.569623,-10.35604,-6.583242,-19.412282,-1.975287,3.579908,-9.334128
10.603158,6.447666,16.520881,-15.887891,-1.930394,3.109132,-10.118108
10.636433,12.701693,7.107142,-16.995548,-2.429304,2.92537,-10.165694
10.669838,1.232908,4.892576,-12.763346,1.719098,-1.580379,-11.282779
10.703151,0.541259,3.486381,-8.893729,-11.284575,5.304394,-18.376304
10.736441,1.368784,3.289601,-9.164433,-5.310379,-0.41511,-14.166548
10.770091,1.782547,2.82077,-9.107419,-10.671637,15.377459,-21.939751
10.803106,1.453183,3.07636,-9.052351,-4.525801,-3.826221,-8.47009
10.836461,1.721044,3.367715,-9.205585,-2.180298,-2.400572,-7.675187
10.869777,1.771772,3.464384,-9.254967,-3.532471,-0.280431,-9.480779
10.902351,1.760549,3.012462,-9.048909,-3.488177,1.56317,-10.570628
10.93644,1.871884,3.057205,-8.940717,-3.673285,3.283316,-10.860038
10.969756,2.058788,3.446576,-9.186132,-3.06364,4.652848,-11.203618
11.003101,1.88176,3.458099,-9.238357,-3.390311,7.448178,-14.796545
11.03644,2.080935,3.075013,-8.905252,-4.009683,12.268627,-17.662656
11.069765,2.161742,3.486531,-9.331285,-5.894885,13.798277,-12.470794
11.103108,2.122236,3.360681,-8.978577,3.095813,21.183306,-9.629224
11.136434,2.077044,3.413056,-8.974536,2.887211,21.328609,8.800502
11.169791,2.495296,3.819487,-9.071954,-1.96137,19.866448,14.966539
11.203102,2.387254,3.442985,-8.538627,7.877205,-5.775619,-27.110064
11.236466,1.220189,1.811877,-7.051475,9.642842,18.463545,-23.966814
11.269788,17.458394,23.030199,-12.297957,-9.515945,6.475499,-11.421947
11.30311,3.879493,4.21215,-10.873805,-7.458204,7.442492,-12.4265
11.336508,5.111504,-8.858563,-25.446633,-1.823699,4.21215,-10.198466
11.369782,11.662872,2.173564,-23.499629,-0.106396,4.846486,-10.461688
11.403109,3.417695,-0.938411,-11.346976,-1.327632,3.868569,-9.412841
11.436426,1.968254,-1.272414,-9.831991,-1.453781,3.297083,-8.988304
11.469787,4.500811,0.538864,-12.351379,-1.39976,3.450617,-8.976482
11.503104,5.326391,2.689383,-11.506794,-1.038223,3.698874,-9.213666
11.536424,5.404954,3.557911,-7.302875,-1.516931,3.896403,-9.226834
11.569776,7.88738,5.7837,-10.820532,-1.406943,3.344221,-8.973938
11.603042,7.298535,7.358093,-11.639228,-1.044059,3.847919,-9.237908
11.636429,8.18921,16.308687,-28.410312,-1.499871,3.300525,-8.89762
11.669773,2.350591,22.457366,-11.769118,-1.129655,3.393752,-8.982468
11.703303,-0.135726,23.898577,0.344478,-1.385544,3.801978,-9.067764
11.73641,-6.368056,26.015576,15.138928,-1.261939,3.976462,-9.172813
11.769819,-1.801701,24.042234,28.79235,-1.576788,3.886676,-9.124179
11.803154,-15.909888,5.252916,-21.306612,-1.704284,3.58769,-9.996747
11.836441,10.206696,6.975157,-18.470878,-2.647184,1.633353,-10.323268
11.86985,3.75918,10.960149,-16.482123,1.373872,-0.797597,-11.117274
11.903155,2.290585,4.09902,-9.291331,-7.681172,5.552801,-13.089867
11.93643,1.642481,3.552673,-9.719459,-5.809887,-10.85046,-19.626421
11.969752,1.873979,3.557761,-9.672322,-2.829598,0.625358,-21.448473
12.003117,1.976185,3.271195,-8.385093,-6.623197,-2.781264,-8.451684
12.036441,1.598486,3.480845,-9.033346,-3.83894,-1.851831,-8.43238
12.069781,1.662982,3.496258,-9.400121,-4.546901,-1.39542,-8.069795
12.102963,2.101436,3.318781,-8.987406,-5.013188,0.547544,-8.743039
12.136439,2.001624,3.206998,-8.90196,-3.913612,2.211723,-10.327907
12.169769,2.031702,3.312496,-9.001323,-2.696416,3.926481,-11.622319
12.20311,1.922463,3.260121,-8.944758,-2.311834,5.267132,-12.723691
12.236445,1.981572,2.936144,-8.686474,-2.121937,4.35027,-11.463398
12.269777,2.140642,3.393303,-8.891036,-3.59188,11.841845,-21.290001
12.303136,2.272478,3.908674,-9.359268,-1.572149,11.669756,-10.723264
12.336416,2.394736,3.583949,-9.000425,-1.561225,14.782628,-4.963208
12.369775,2.446662,3.914061,-9.070907,3.756038,21.201862,3.139659
12.403203,2.423318,3.213133,-8.677645,-1.117534,17.725806,6.997903
12.436433,2.528218,3.638568,-8.701288,1.390632,1.31192,-14.125247
12.469771,2.04113,2.829299,-8.092242,2.926717,-8.233954,-2.084826
12.503085,0.300184,0.477211,-6.735878,12.178093,15.037769,-22.643821
12.536357,8.428789,10.298278,-11.879555,-6.811597,4.32079,-11.146155
12.569777,4.537623,3.793598,-9.888855,-4.552587,3.318632,-10.069175
12.602873,10.621507,2.538543,-26.167763,-4.178929,4.762087,-10.409762
12.636443,8.76339,1.581726,-18.297142,-0.909081,4.933878,-10.953415
12.669775,7.938409,-0.689405,-8.929644,-1.102869,3.046132,-9.565925
12.703089,4.263477,-1.66807,-8.387338,-2.073004,2.140193,-8.470689
12.736441,5.270724,0.633139,-11.055471,-2.193317,3.327909,-9.291031
12.769774,5.687479,2.17955,-9.296718,-1.126662,3.834451,-9.491553
12.803137,4.755054,5.153703,-11.335154,-1.766834,3.176321,-9.021973
12.836481,4.92879,7.519857,-14.110582,-2.218157,2.747893,-8.57918
12.869771,5.722197,11.21963,-11.94435,-1.829235,3.515113,-9.265891
12.903107,4.697741,11.782736,-7.396552,-2.094103,3.016503,-8.968401
12.936494,2.136752,18.294598,-10.341974,-2.109068,3.31519,-9.000125
12.96977,1.908097,22.105406,-5.34794,-1.585766,3.735537,-9.273074
13.003111,-1.433729,18.079262,10.644402,-1.671212,2.708837,-8.798107
13.036501,-0.798944,18.809071,9.57655,-1.709371,3.911068,-9.273373
13.069782,-7.900998,-5.341056,-18.936866,-1.320599,3.736884,-9.347896
13.102772,-0.16745,13.12204,-25.908432,-2.727392,3.066034,-9.240153
13.136475,12.359011,3.428021,-13.684698,-1.479071,1.501966,-9.753727
13.169786,0.234939,5.54876,-13.714178,2.955897,2.546923,-11.652098
13.203115,1.350677,4.854417,-11.799496,-8.37806,2.748342,-10.501343
13.236424,2.884069,3.673734,-9.853988,-13.848707,15.587558,-18.135079
13.269821,1.828786,3.272991,-9.287589,-8.402601,9.530161,-21.499053
13.303087,1.679592,2.826007,-8.810528,-5.086214,-4.261681,-10.554766
13.33642,1.834024,3.389413,-9.444116,-5.048205,-3.167642,-8.608959
13.369766,1.419962,3.44104,-9.283399,-4.371669,-1.120676,-10.390907
13.403105,1.85677,3.069027,-9.050854,-4.097374,0.766322,-11.842892
13.436442,1.769528,3.242314,-8.959423,-3.610735,2.231027,-11.577576
13.469822,1.884603,3.304864,-9.046215,-3.602205,4.173841,-11.963205
13.503104,1.90286,2.835285,-8.693507,-4.866538,5.48202,-13.689636
13.536842,1.949848,3.066783,-9.127172,-3.346316,9.814183,-17.617614
13.569843,2.006413,3.30681,-8.926501,-1.189063,13.922929,-13.974107
13.603129,2.185535,2.848453,-9.062227,-1.70997,15.103163,-5.57001
13.636819,2.396831,3.18934,-8.754412,0.167002,20.624838,4.294603
13.669746,2.40551,3.677475,-9.361363,0.933323,21.494114,9.169072
13.703121,2.330988,3.926182,-9.254069,1.322993,-0.163859,-22.335557
13.736449,2.15426,2.708986,-8.12232,6.209135,0.305421,-3.505386
13.769779,0.84249,0.341934,-5.900122,11.415063,8.585016,-14.09053
13.802946,5.03773,8.935031,-11.612442,-9.89948,7.496962,-13.474001
13.836447,4.566803,3.988733,-11.85666,-1.669117,4.959915,-10.512716
13.86965,5.500276,-18.016712,-27.850348,0.619223,5.316215,-11.157528
13.903184,13.577853,1.280644,-23.003712,-0.918658,3.910021,-9.843064
13.936446,6.322115,0.475865,-14.79864,-1.39557,3.336738,-9.020178
13.969754,2.384261,-1.647718,-8.921862,-1.369981,3.248299,-8.958824
14.003136,2.764953,0.217282,-10.483985,-1.38704,3.538906,-9.089462
14.036439,3.584398,3.698276,-14.45491,-1.060968,3.459895,-9.059085
14.069772,2.553507,5.156846,-7.357195,-1.498674,3.572426,-9.150517
14.103187,7.281177,5.463314,-13.272731,-1.257749,3.367266,-9.076593
14.136515,9.601241,9.297316,-17.921239,-1.382701,2.986574,-8.875024
14.169886,5.743296,17.641856,-16.764649,-1.560028,2.9339,-8.775212
14.203195,0.675788,25.050229,-11.497816,-1.524712,3.107336,-8.870684
14.236417,-3.383277,22.352616,9.862667,-1.296506,3.846123,-9.237908
14.269759,-2.63207,26.571499,20.661202,-1.747081,3.875303,-9.154108
14.303114,-15.727623,-5.449098,-29.929188,-2.009405,3.634827,-9.271578
14.336442,9.162039,11.681278,-16.615455,-2.26335,1.951643,-9.939883
14.369781,13.306251,6.451856,-11.65524,0.089337,2.294176,-11.976524
14.403183,2.472999,4.553186,-13.232776,-4.779446,2.34715,-11.890479
14.436449,-0.570439,4.17848,-10.700069,-14.31679,14.180615,-17.483085
14.469797,1.433729,3.133673,-8.669115,-8.398112,9.71078,-20.411298
14.503191,1.779554,3.118709,-9.000874,-3.875603,-2.199153,-16.756119
14.536436,2.284898,2.988819,-9.321708,-2.146179,-2.457137,-11.535227
14.569763,2.25497,3.64201,-9.435586,-5.024262,-1.901513,-9.373634
14.60311,1.966608,3.255183,-8.949845,-6.540594,-0.180469,-10.116162
14.63646,2.190922,3.253986,-9.090809,-5.551155,2.345653,-11.702976
14.669773,2.530911,3.200414,-8.937126,-3.354696,4.641326,-12.267729
14.703136,2.218756,3.034011,-8.687372,-3.714288,6.635468,-13.945825
14.736494,2.406259,3.546089,-9.067614,-3.795544,7.923145,-15.493731
14.769573,2.373786,3.57512,-9.186132,-5.692867,12.950998,-14.641066
14.803106,2.420475,3.617768,-9.225787,2.267989,26.324738,-13.279764
14.83643,2.416135,3.388515,-8.864998,2.253922,22.717894,7.1878
14.869789,2.633566,3.774743,-9.162937,1.64293,23.65421,18.564105
14.90309,2.707191,3.288104,-8.775661,5.172708,-9.528215,-30.299405
14.936445,0.654389,0.138569,-6.988924,3.333147,18.707314,-21.475409
14.969799,2.837829,3.907776,-9.688184,-3.356641,6.257469,-11.233247
15.003152,2.998096,4.140022,-13.205242,-2.975351,6.481036,-11.699983
15.036441,3.567039,-22.653697,-34.761458,-1.309825,4.838854,-10.443731
15.069815,13.976053,0.914019,-30.287882,-0.130788,5.263391,-10.82143
15.103147,12.481269,1.978729,-11.068191,-0.721279,3.900144,-9.525971
15.136418,3.714587,-2.989716,-8.530097,-1.210163,3.033861,-8.784041
15.169778,4.591195,-1.029843,-11.108595,-1.666873,3.544592,-8.983814
15.203153,4.761938,1.826243,-13.041532,-0.899504,3.54564,-9.099039
15.236441,3.455106,4.948842,-10.941743,-1.555239,3.131279,-8.823397
15.269771,5.481571,4.717644,-8.120524,-1.646671,3.554469,-8.993092
15.303138,11.113084,6.953309,-15.069344,-1.333618,3.901042,-9.142585
15.336443,8.501066,15.934131,-18.935519,-1.423404,3.05541,-8.817262
15.369785,2.626832,20.887163,-13.603741,-1.143871,3.888322,-9.126125
15.403005,1.306383,30.073593,-8.44091,-1.705331,3.538158,-8.841803
15.436439,-2.546474,24.1196,18.699532,-1.735559,3.542946,-8.865297
15.469776,-0.732203,25.60316,17.87889,-1.271366,4.018512,-9.485268
15.503103,-10.628091,-4.22442,-12.66129,-1.263585,4.181024,-9.888556
15.536432,1.153149,8.976781,-20.40606,-2.667834,2.310936,-9.820318
15.569769,14.550233,8.225573,-12.873932,2.496793,-1.665526,-11.058165
15.602627,2.331886,4.195988,-11.13134,-14.98734,16.615006,-13.65013
15.636413,0.88843,3.43655,-10.124094,-2.962781,-3.759629,-16.127769
15.669503,1.394672,4.019858,-10.190984,-3.812603,12.561478,-27.956445
15.703106,2.021527,3.240518,-8.920366,-5.230769,-4.758346,-10.112421
15.73641,2.426311,3.293043,-9.256613,-7.708407,-3.22301,-7.155776
15.769737,2.033797,3.831757,-9.704944,-5.977338,-0.04594,-10.306059
15.803265,1.859613,3.352451,-9.227583,-4.030633,1.026551,-10.917949
15.83647,2.235516,2.850399,-8.799454,-2.255568,4.257192,-13.224695
15.869774,2.135255,3.843729,-9.319164,-2.4308,5.910447,-12.237351
15.90309,2.101735,3.037303,-8.780599,-4.188506,8.582322,-15.487895
15.936443,1.929347,3.44523,-9.047861,-4.095578,11.770914,-16.407302
15.969773,2.442771,3.640813,-9.091408,-0.580465,18.983704,-9.887807
16.003043,2.296271,3.283466,-8.886995,0.60366,21.62595,-5.019024
16.036534,2.449056,3.602804,-9.14902,2.088567,22.335108,8.714158
16.069813,2.433943,3.661613,-9.178051,3.227499,21.113273,13.754581
16.103174,2.000876,1.654003,-7.303623,-0.062102,1.465753,-11.579371
16.136529,0.821989,1.75621,-7.373357,2.389499,13.873996,-18.599421
16.16982,0.622664,5.167919,-10.331798,-8.302939,8.802447,-14.364376
16.203115,6.635318,2.25482,-12.949652,-2.067168,6.600301,-11.968892
16.236459,8.157636,-10.508676,-20.02477,1.128607,4.537324,-11.062355
16.269776,5.552352,1.629163,-18.091084,-0.75016,4.148701,-9.726193
16.303097,2.665739,-1.32434,-16.242096,-1.179785,3.034609,-9.030054
16.336511,3.010517,-0.014066,-14.142456,-1.678994,3.338085,-9.118493
16.369778,2.806853,0.086793,-11.002498,-1.22782,3.204155,-8.854523
16.403099,3.874106,2.304651,-11.717941,-1.316559,3.300525,-9.05265
16.43642,5.622385,3.299328,-11.536723,-1.45004,3.344221,-9.020477
16.469799,7.346272,4.659582,-9.512204,-1.343644,3.318482,-9.04023
16.503076,6.256572,7.129888,-10.036104,-1.533092,3.073516,-8.816364
16.536427,5.500426,11.545253,-22.877414,-0.838898,3.419042,-9.122384
16.569876,0.8172,15.534135,-8.212704,-1.230664,3.44942,-9.128519
16.603116,0.577322,20.113658,-5.122428,-1.585617,3.151181,-8.845245
16.636448,-1.892983,18.550488,1.99489,-1.329278,4.222325,-9.257811
16.669797,1.192355,13.258066,10.916154,-1.603275,3.96898,-8.951491
16.70312,-1.952392,5.952796,0.695989,-1.74783,3.582751,-8.89747
16.736438,-7.963698,2.12478,-3.898199,-1.239642,3.766663,-9.772732
16.769777,-6.686645,11.725123,-20.790792,-2.491106,2.005066,-9.94527
16.803169,9.175956,7.748512,-18.631145,-1.376416,1.187267,-10.14669
16.836461,2.280559,3.741523,-10.163899,-2.36361,2.959937,-12.254111
16.869886,-0.914169,3.927529,-10.836843,-11.584908,9.894392,-18.502153
16.902719,2.073303,3.554319,-10.394648,-7.790412,-18.002046,-16.316917
16.93645,2.442771,2.302107,-8.77596,-10.788658,-3.50808,-14.96609
16.969788,1.619885,2.756573,-8.814568,-2.629676,-5.284341,-9.213965
17.003091,1.142823,3.269249,-9.627878,-3.942643,-2.528367,-10.808411
17.036447,1.712514,2.43918,-8.950294,-4.326327,-0.389221,-10.750499
17.069755,1.628115,2.959189,-9.113255,-3.359634,1.872482,-11.423294
17.103135,1.947154,3.534267,-9.402366,-3.513766,3.847021,-11.81476
17.136433,1.965859,4.056371,-9.650773,-5.06706,5.373828,-13.108273
17.169773,1.741694,2.638355,-8.610904,-5.160587,7.848324,-14.390564
17.203152,2.033049,3.436101,-9.305996,-5.660394,16.844558,-19.294513
17.236504,2.064175,4.108148,-9.229827,0.32263,19.250218,-10.433256
17.269677,2.195262,3.404976,-9.197804,1.430587,19.858966,4.846935
17.303132,2.304202,3.719675,-9.142436,2.386506,22.889684,7.131684
17.336443,2.228183,3.793898,-9.148571,0.722626,20.208382,9.583883
17.369743,1.763392,2.062828,-7.71978,0.568194,1.620184,-5.504616
17.403149,0.752405,0.499209,-6.469514,8.13474,7.912969,-15.865594
17.436461,1.341848,5.231068,-10.779979,-11.923999,7.587496,-13.313284
17.469841,7.75779,2.796228,-11.28218,-3.173777,6.522337,-11.897213
17.503138,10.647096,-4.125357,-18.275145,0.88424,4.807729,-10.454804
17.536434,14.506836,1.50451,-12.061222,0.142011,4.92026,-10.55746
17.569797,6.64714,-1.153149,-16.591662,-1.050643,3.395398,-9.062526
17.603108,3.492068,0.663966,-15.885347,-1.453332,3.164799,-8.972142
17.636461,0.08365,1.938774,-13.350246,-1.291119,3.309653,-8.954784
17.669797,-2.016738,3.876052,-9.724697,-1.428342,3.071721,-8.83058
17.703113,2.982534,5.194107,-12.685831,-1.169609,3.272691,-8.950743
17.736462,6.850056,5.634805,-12.251867,-1.232908,3.03431,-8.853026
17.769811,7.111332,6.331692,-8.324787,-1.418914,3.158214,-8.908544
17.803115,6.207489,8.284533,-9.711378,-1.252661,3.828166,-9.227882
17.836462,7.234189,20.701755,-21.029623,-0.952178,3.463785,-9.055344
17.869885,-0.38144,22.148204,4.770617,-1.178289,3.951472,-9.213965
17.903111,-2.087818,23.332628,12.396272,-1.465603,3.773845,-9.048759
17.936477,-4.380797,26.28643,23.975643,-1.589208,3.560155,-9.03155
17.969795,-0.358694,9.686837,-3.606096,-1.769977,3.782525,-9.938836
18.003125,2.310038,7.646605,-15.815913,-2.85414,1.010988,-9.767045
18.036485,13.694125,9.728138,-17.272687,1.84809,-0.6704,-11.611544
18.069875,6.421478,5.121081,-11.094827,-7.446832,4.277544,-12.587366
18.102705,-0.187503,3.906878,-10.933961,-13.180102,-3.902538,-18.636084
18.136449,1.911689,3.553122,-10.168837,-7.910276,-6.216467,-12.726684
18.169767,2.05774,2.587775,-8.526356,-4.273054,-3.072768,-10.274784
18.203104,1.587861,2.835285,-8.958525,-0.770063,-2.553807,-9.336074
18.236418,2.304202,2.817477,-8.927848,-1.253709,-1.452883,-9.151714
18.269749,1.891636,3.12664,-9.240003,-2.445914,0.607999,-10.961346
18.303065,1.588011,2.787998,-8.867841,-2.871349,1.499422,-10.853453
18.33642,2.061631,3.180362,-9.293126,-3.950125,2.510859,-11.402194
18.369804,2.184637,3.128585,-8.926052,-5.766042,4.587903,-12.820659
18.403107,2.118645,3.260121,-9.377675,-6.103637,8.478769,-16.633562
18.436477,2.442472,3.406622,-9.216808,-5.574649,14.353901,-11.883446
18.469795,2.48931,3.145495,-8.75935,6.476397,16.200794,-11.721233
18.503142,2.625635,3.317434,-8.973639,-3.303817,22.473827,3.232437
18.536477,2.724998,3.890567,-9.525821,-0.40643,17.290794,12.566566
18.569876,2.419278,3.417097,-8.914679,7.411965,1.547757,-18.954524
18.603132,2.35538,2.305848,-7.739832,10.730596,0.821839,-7.540957
18.636478,0.505195,-0.18451,-6.474152,-6.602546,5.441018,-10.344817
18.669772,17.19188,22.24622,-9.502926,-7.277735,8.357409,-13.270636
18.703163,5.291824,3.582751,-11.21933,-0.766621,4.975927,-11.199428
18.736041,11.133136,0.936914,-24.530968,1.705331,5.14263,-11.237437
18.769758,9.075097,1.476677,-26.091295,-1.220937,3.643207,-9.37528
18.803129,2.071807,-4.347577,-10.20924,-1.718799,3.071122,-8.99818
18.83649,3.678673,-1.098978,-11.791266,-1.602227,3.422035,-8.993541
18.869762,3.168989,1.397665,-11.658233,-1.237248,2.907263,-8.795115
18.90314,2.754178,4.074329,-12.045808,-0.843537,3.38208,-9.211122
18.93647,4.087198,4.562913,-10.109728,-1.452434,3.239022,-9.003567
18.969761,7.317989,5.983922,-15.769972,-1.411881,3.74676,-9.146626
19.003132,11.959464,13.534905,-15.058121,-0.629698,3.616421,-9.25811
19.036472,-0.01242,15.93009,-10.996362,-0.936466,3.656974,-9.044719
19.069793,2.860126,23.121781,-4.79456,-1.146115,3.879643,-9.119241
19.103231,-0.158472,18.682772,10.092369,-1.160182,4.147953,-9.218006
19.136481,0.786673,19.737007,19.858966,-1.19849,4.342938,-9.362112
19.169995,-11.340391,-2.501132,-26.313216,-1.243533,3.492217,-9.469406
19.203122,7.696586,11.36194,-15.010385,-4.050086,2.356278,-9.502477
19.236462,11.629801,9.788295,-17.354541,-1.496878,1.248172,-10.542495
19.269744,2.042177,3.919149,-11.543307,-5.461818,6.42911,-13.506922
19.303095,1.487152,4.481507,-11.352513,-7.763626,-2.406109,-13.003374
19.336477,1.606417,3.411261,-8.782993,-9.48841,13.134311,-22.03253
19.369841,1.811129,3.146991,-8.927249,-4.119221,-6.573066,-9.585229
19.403103,2.484522,4.544656,-9.997795,-2.245542,-1.374022,-10.970624
19.43648,1.834623,3.760976,-9.070458,-0.261426,-0.160567,-10.507928
19.469777,1.970049,3.496258,-8.979475,-0.672795,1.751571,-10.759777
19.503106,2.069861,3.657573,-9.092754,-0.567596,3.450168,-10.230939
19.535824,1.980674,3.617319,-9.064921,-3.264461,5.133352,-12.190513
19.569126,2.058039,3.417097,-8.976781,-5.454934,4.654644,-10.330152
19.603131,1.930544,3.688699,-9.06956,-6.883127,9.394734,-12.091599
19.636443,2.18778,3.669844,-9.036788,-3.869018,18.33186,-15.355611
19.669796,2.006862,3.039847,-8.513935,-0.326521,17.096856,-3.976462
19.703129,1.931292,3.373401,-8.922012,0.741032,20.671527,1.639937
19.736441,2.034845,4.326477,-9.646733,0.905789,14.38802,13.871303
19.769799,1.906301,3.606395,-9.199001,7.706163,-4.307023,-17.036101
19.803142,2.343109,2.848453,-8.848238,-0.95981,12.510599,-10.272539
19.836416,1.107358,2.188678,-7.810165,-11.044547,11.11069,-11.354907
19.869797,0.158921,1.589807,-7.819592,1.117534,3.875902,-8.777307
19.90315,3.58754,4.859954,-12.839963,-1.21525,3.658022,-9.283848
19.93608,3.246504,-10.067977,-16.933895,-0.864936,3.782674,-9.259457
19.969777,8.477722,-0.187652,-21.50833,-0.863739,3.560754,-9.193763
20.003122,1.373573,-1.385843,-9.130165,-1.763093,3.514065,-8.871133
20.036522,0.56999,1.29905,-11.372565,-1.364594,3.243661,-8.85572
20.069038,1.178438,2.91265,-10.721468,-0.940805,3.522445,-9.000125
20.103152,5.556692,4.512483,-10.416346,-1.364444,3.198019,-8.7592
20.136471,5.882315,5.561181,-6.445122,-1.300696,3.673435,-8.970496
20.169779,3.832954,6.59671,-2.905617,-1.388836,3.372653,-8.892083
20.203129,4.385287,9.680552,-10.124393,-1.258048,3.370408,-8.932337
20.236466,2.593013,14.117615,-7.997069,-1.027598,4.176984,-9.16174
20.269879,0.868079,11.124756,-1.447945,-1.416819,4.092735,-9.012246
20.303087,-0.282376,12.61071,7.189895,-1.025204,3.818439,-9.041277
20.336474,-8.378509,1.470841,-15.076976,-0.958762,3.924536,-9.099937
20.369759,10.814247,3.543994,-18.105749,-1.425798,3.773995,-8.860957
20.40313,-1.020715,9.021375,-19.351227,-1.559728,4.120419,-8.951491
20.436484,3.864529,2.747744,-10.413353,-1.241588,4.024048,-8.964361
20.469759,1.70578,2.892449,-8.852129,-1.486553,3.045683,-8.468294
20.503128,2.617854,5.202038,-10.906726,-1.000812,3.919149,-8.881907
20.536479,1.899268,3.443135,-8.608959,-1.169909,4.227114,-8.941016
20.569782,2.002971,4.597181,-9.5556,-1.262388,4.081212,-8.689018
20.603162,1.737355,2.101436,-8.347832,-0.870473,3.540402,-9.201096
20.636473,2.29238,4.279339,-9.821216,-1.12307,4.434968,-8.957776
20.669772,2.34296,4.773161,-9.832589,-1.017422,4.247765,-9.018681
20.703143,1.620932,3.811855,-9.11535,-0.909829,3.544592,-8.766233
20.736475,1.8439,2.077493,-7.961154,-0.921352,3.78013,-8.900762
20.769771,1.97379,3.816344,-9.173861,-1.369233,3.335691,-8.733312
20.80302,2.177604,3.927229,-9.395931,-1.158536,4.175487,-8.96466
20.83647,1.904506,3.316088,-8.712512,-1.445401,4.143314,-8.803195
20.869796,1.946705,3.740475,-9.310635,-1.206122,3.95656,-8.817112
20.903131,1.780003,3.645153,-9.004315,-1.237846,4.340992,-8.872031
20.936474,1.757556,3.596519,-9.170569,-1.581277,3.786116,-8.724333
20.969768,1.711017,3.287506,-8.810378,-1.562871,3.803624,-8.791972
21.003091,1.801551,3.563148,-9.20364,-1.473983,4.169202,-8.811575
21.036482,1.896425,3.374,-8.983665,-1.353072,4.180874,-8.731816
21.069814,1.403651,3.512569,-8.723585,-1.264184,3.971225,-8.797359
21.103108,1.308029,3.031916,-8.72987,-1.740647,3.863033,-8.617189
21.136475,1.804694,3.67987,-9.184785,-1.553593,4.293406,-8.816663
21.169787,2.001175,3.542946,-9.292228,-1.540873,4.012227,-8.702336
21.203105,1.804245,3.251143,-8.918869,-1.519474,3.936058,-8.658341
21.236466,1.866646,3.127238,-8.953287,-1.519175,3.923937,-8.712512
21.269786,2.003719,3.324318,-9.015239,-1.477574,4.012077,-8.789727
21.303102,1.910791,3.094018,-8.748875,-1.551049,4.067744,-8.855271
21.336489,1.932489,3.496407,-9.168623,-1.753067,3.914809,-8.60836
21.369787,1.859912,3.170036,-8.903755,-1.677497,3.995167,-8.709668
21.403129,2.006562,3.507331,-9.124479,-1.615695,4.158577,-8.803495
21.436481,1.863055,3.653533,-9.151414,-1.599085,4.192098,-8.794815
21.46983,1.964064,3.703813,-9.182241,-1.841955,4.003098,-8.607462
21.503135,2.109068,3.699473,-9.205286,-1.577985,4.227563,-8.687671
21.536494,2.026614,3.518854,-9.055344,-1.486553,4.231903,-8.791074
21.569621,1.921715,3.436401,-9.000425,-1.628863,4.147504,-8.712212
21.603109,1.949399,3.484735,-9.010301,-1.597887,4.0652,-8.695602
21.636426,1.832228,3.573025,-9.026762,-1.643528,4.201675,-8.693058
21.669786,1.970648,3.458249,-9.018232,-1.555688,4.211401,-8.769526
21.703095,1.966907,3.328658,-8.883554,-1.777609,3.958954,-8.532641
21.736422,2.698511,3.071272,-9.328741,-1.746333,4.016866,-8.557482
21.769802,0.871521,4.653896,-9.372138,-2.890653,3.816045,-8.443304
21.803155,1.790179,3.260869,-9.185832,-1.143571,3.608789,-8.413675
21.836504,1.89867,3.409166,-9.34595,-2.072704,4.116378,-8.8011
21.869867,2.178801,3.439244,-8.992194,-2.256915,4.097074,-8.112892