time_tick,acc_X_value,acc_Y_value,acc_Z_value,acc_X_value,acc_Y_value,acc_Z_value
0.029505,1.380157,2.812539,-9.402515,1.380157,2.812539,-9.402515
0.062839,1.331822,2.818375,-9.390693,1.331822,2.818375,-9.390693
0.096168,1.360254,2.8082,-9.443368,1.360254,2.8082,-9.443368
0.129505,1.394523,2.745499,-9.332482,1.394523,2.745499,-9.332482
0.162832,1.421458,2.820171,-9.391292,1.421458,2.820171,-9.391292
0.196189,1.350827,2.765402,-9.564878,1.350827,2.765402,-9.564878
0.229529,1.351276,2.804159,-9.217108,1.351276,2.804159,-9.217108
0.263668,1.390333,2.815532,-9.457883,1.390333,2.815532,-9.457883
0.296974,1.354418,2.872396,-9.340862,1.354418,2.872396,-9.340862
0.330297,1.361152,2.844114,-9.368995,1.361152,2.844114,-9.368995
0.36362,1.326884,2.755076,-9.395931,1.326884,2.755076,-9.395931
0.396978,1.491192,2.811342,-9.401168,1.491192,2.811342,-9.401168
0.4303,1.355765,2.828102,-9.209925,1.355765,2.828102,-9.209925
0.463587,1.34095,2.793086,-9.346698,1.34095,2.793086,-9.346698
0.496913,1.344392,2.779468,-9.331136,1.344392,2.779468,-9.331136
0.530291,1.427294,2.86686,-9.382313,1.427294,2.86686,-9.382313
0.563593,1.381653,2.856235,-9.412541,1.381653,2.856235,-9.412541
0.596754,1.342297,2.612018,-9.227583,1.342297,2.612018,-9.227583
0.630205,1.446299,2.733827,-9.288038,1.446299,2.733827,-9.288038
0.663645,1.485506,2.895441,-9.397876,1.485506,2.895441,-9.397876
0.696962,1.523964,2.938239,-9.441871,1.523964,2.938239,-9.441871
0.730328,1.323592,2.931356,-9.478833,1.323592,2.931356,-9.478833
0.763633,1.264782,2.519987,-9.206633,1.264782,2.519987,-9.206633
0.796977,1.504061,2.822416,-9.295969,1.504061,2.822416,-9.295969
0.830211,1.541023,2.944973,-9.381715,1.541023,2.944973,-9.381715
0.863634,1.350228,2.786352,-9.397727,1.350228,2.786352,-9.397727
0.896967,1.273761,2.707789,-9.332033,1.273761,2.707789,-9.332033
0.930349,1.397366,2.796677,-9.374083,1.397366,2.796677,-9.374083
0.963643,1.494933,2.654666,-9.276217,1.494933,2.654666,-9.276217
0.996963,1.431335,2.964876,-9.528515,1.431335,2.964876,-9.528515
1.030255,1.287378,2.818824,-9.474643,1.287378,2.818824,-9.474643
1.063655,1.415173,2.807751,-9.367948,1.415173,2.807751,-9.367948
1.096966,1.422207,2.701654,-9.248084,1.422207,2.701654,-9.248084
1.130728,1.411732,2.757321,-9.339516,1.411732,2.757321,-9.339516
1.163568,1.379259,2.697763,-9.280856,1.379259,2.697763,-9.280856
1.196912,1.413976,2.763157,-9.372587,1.413976,2.763157,-9.372587
1.230583,1.473684,2.662148,-9.336523,1.473684,2.662148,-9.336523
1.263581,1.396917,2.94228,-9.455489,1.396917,2.94228,-9.455489
1.296914,1.393625,2.802064,-9.385905,1.393625,2.802064,-9.385905
1.330845,1.467997,2.796078,-9.39623,1.467997,2.796078,-9.39623
1.363595,1.404549,2.821069,-9.469256,1.404549,2.821069,-9.469256
1.396915,1.435226,2.891551,-9.43828,1.435226,2.891551,-9.43828
1.430246,1.405746,2.827354,-9.420173,1.405746,2.827354,-9.420173
1.463589,1.456475,2.82062,-9.435586,1.456475,2.82062,-9.435586
1.496885,1.331074,2.599448,-9.26649,1.331074,2.599448,-9.26649
1.530215,1.389285,2.601692,-9.307791,1.389285,2.601692,-9.307791
1.563645,1.322844,2.562785,-9.301207,1.322844,2.562785,-9.301207
1.596976,1.318354,2.635811,-9.348494,1.318354,2.635811,-9.348494
1.630297,1.448693,2.788896,-9.443966,1.448693,2.788896,-9.443966
1.663645,1.386143,2.726494,-9.428104,1.386143,2.726494,-9.428104
1.696903,1.252511,2.489161,-9.233419,1.252511,2.489161,-9.233419
1.730249,1.508401,2.794283,-9.386204,1.508401,2.794283,-9.386204
1.763585,1.367737,2.56503,-9.252423,1.367737,2.56503,-9.252423
1.796923,1.536534,2.725447,-9.443667,1.536534,2.725447,-9.443667
1.830242,1.519474,2.754029,-9.474045,1.519474,2.754029,-9.474045
1.863585,1.565714,2.748791,-9.448905,1.565714,2.748791,-9.448905
1.89698,1.645923,2.605882,-9.414936,1.645923,2.605882,-9.414936
1.930299,1.348882,2.462375,-10.047925,1.348882,2.462375,-10.047925
1.963592,2.189576,2.24644,-11.196285,2.189576,2.24644,-11.196285
1.99691,0.323229,-0.736243,-10.298877,0.323229,-0.736243,-10.298877
2.030213,4.059364,6.889711,-14.875407,4.059364,6.889711,-14.875407
2.063602,1.646222,5.132304,-11.823589,1.646222,5.132304,-11.823589
2.096918,2.597652,5.303795,-24.334637,2.597652,5.303795,-24.334637
2.130277,3.551925,-3.150134,-13.02163,3.551925,-3.150134,-13.02163
2.163511,3.071721,-3.46588,-8.957776,3.071721,-3.46588,-8.957776
2.196881,4.570545,-2.820021,-8.744236,4.570545,-2.820021,-8.744236
2.230304,5.1971,0.44833,-10.908372,5.1971,0.44833,-10.908372
2.263594,4.018362,2.734874,-10.258473,4.018362,2.734874,-10.258473
2.296261,2.915494,3.796292,-10.285558,2.915494,3.796292,-10.285558
2.330288,2.410748,5.007502,-11.528642,2.410748,5.007502,-11.528642
2.363613,3.793449,5.550556,-12.246629,3.793449,5.550556,-12.246629
2.396912,3.612381,4.236392,-8.363395,3.612381,4.236392,-8.363395
2.430247,2.79563,6.898989,-8.225424,2.79563,6.898989,-8.225424
2.463589,5.235109,16.214262,-15.643973,5.235109,16.214262,-15.643973
2.496985,8.065904,22.147904,-15.944306,8.065904,22.147904,-15.944306
2.53026,-2.289986,20.499887,0.421395,-2.289986,20.499887,0.421395
2.563582,-8.823247,21.265759,13.922331,-8.823247,21.265759,13.922331
2.596968,2.822116,-2.518042,-21.659919,2.822116,-2.518042,-21.659919
2.630261,16.476437,3.499101,-27.785104,16.476437,3.499101,-27.785104
2.663612,-12.290774,10.109279,-20.952706,-12.290774,10.109279,-20.952706
2.696922,1.890439,5.203833,-11.823589,1.890439,5.203833,-11.823589
2.73028,1.513189,3.166894,-9.578346,1.513189,3.166894,-9.578346
2.763587,1.507653,3.012462,-8.966905,1.507653,3.012462,-8.966905
2.796916,1.482812,2.830945,-9.408052,1.482812,2.830945,-9.408052
2.830281,1.35786,2.963379,-9.416582,1.35786,2.963379,-9.416582
2.863546,1.275556,2.896639,-9.357173,1.275556,2.896639,-9.357173
2.896915,1.305036,2.930458,-9.335625,1.305036,2.930458,-9.335625
2.929431,1.289174,2.801915,-9.351487,1.289174,2.801915,-9.351487
2.963599,1.33272,2.751934,-9.259756,1.33272,2.751934,-9.259756
2.996899,1.392577,2.779169,-9.343556,1.392577,2.779169,-9.343556
3.030247,1.443456,2.90861,-9.367499,1.443456,2.90861,-9.367499
3.063579,1.373722,2.7663,-9.24539,1.373722,2.7663,-9.24539
3.096929,1.427594,2.762858,-9.319015,1.427594,2.762858,-9.319015
3.12921,1.369682,2.755525,-9.359418,1.369682,2.755525,-9.359418
3.163578,1.556736,2.90861,-9.509211,1.556736,2.90861,-9.509211
3.196923,1.581876,3.065585,-9.566674,1.581876,3.065585,-9.566674
3.230254,1.666573,3.219418,-9.701053,1.666573,3.219418,-9.701053
3.263593,1.808884,2.841869,-9.692523,1.808884,2.841869,-9.692523
3.296339,1.030292,1.074287,-9.974451,1.030292,1.074287,-9.974451
3.330251,2.606032,3.215677,-11.170696,2.606032,3.215677,-11.170696
3.363596,1.197593,7.185854,-11.995079,1.197593,7.185854,-11.995079
3.396974,2.973854,10.058251,-9.690279,2.973854,10.058251,-9.690279
3.430262,5.822158,-0.390119,-27.419975,5.822158,-0.390119,-27.419975
3.463593,13.28964,8.990848,-28.020791,13.28964,8.990848,-28.020791
3.496862,6.141197,-5.575247,-4.059514,6.141197,-5.575247,-4.059514
3.529268,3.611333,-1.918423,-5.249475,3.611333,-1.918423,-5.249475
3.563625,3.442686,0.593334,-8.792421,3.442686,0.593334,-8.792421
3.596907,3.884132,3.808413,-11.570243,3.884132,3.808413,-11.570243
3.630155,0.07527,5.371583,-10.457797,0.07527,5.371583,-10.457797
3.662863,-0.441147,6.206591,-10.494759,-0.441147,6.206591,-10.494759
3.696848,2.369746,5.379963,-10.465579,2.369746,5.379963,-10.465579
3.730276,6.044378,6.300716,-11.996127,6.044378,6.300716,-11.996127
3.763556,4.199879,17.083538,-16.157697,4.199879,17.083538,-16.157697
3.79692,6.59656,26.015726,-15.31416,6.59656,26.015726,-15.31416
3.830011,4.246717,23.414782,-2.966522,4.246717,23.414782,-2.966522
3.8636,-11.428681,22.544907,17.274931,-11.428681,22.544907,17.274931
3.897184,-14.32517,-5.986616,-0.398948,-14.32517,-5.986616,-0.398948
3.930226,17.001534,17.982743,-12.608765,17.001534,17.982743,-12.608765
3.963581,5.248876,17.176766,-22.702182,5.248876,17.176766,-22.702182
3.99683,0.72083,3.955213,-10.416945,0.72083,3.955213,-10.416945
4.030269,1.025503,3.358137,-8.476674,1.025503,3.358137,-8.476674
4.063599,1.509448,3.142801,-9.815231,1.509448,3.142801,-9.815231
4.096781,1.533691,2.833489,-9.607975,1.533691,2.833489,-9.607975
4.130003,1.534588,3.113621,-9.386503,1.534588,3.113621,-9.386503
4.163601,1.355615,2.901577,-8.845245,1.355615,2.901577,-8.845245
4.196277,1.283936,2.634314,-8.586063,1.283936,2.634314,-8.586063
4.230248,1.200585,2.512804,-9.960384,1.200585,2.512804,-9.960384
4.262923,1.819958,3.004531,-9.200048,1.819958,3.004531,-9.200048
4.296929,1.678246,2.85818,-9.2831,1.678246,2.85818,-9.2831
4.330019,1.64293,2.571913,-9.122683,1.64293,2.571913,-9.122683
4.363616,1.710868,3.011864,-9.393088,1.710868,3.011864,-9.393088
4.396899,1.732267,2.800119,-10.646647,1.732267,2.800119,-10.646647
4.43028,1.71401,2.831843,-9.623239,1.71401,2.831843,-9.623239
4.463582,1.688421,2.944674,-9.808048,1.688421,2.944674,-9.808048
4.496957,1.620035,2.998396,-9.505919,1.620035,2.998396,-9.505919
4.530281,1.91124,3.133673,-9.500082,1.91124,3.133673,-9.500082
4.563622,1.680041,2.697015,-9.659153,1.680041,2.697015,-9.659153
4.596956,-0.20935,-0.514173,-9.667683,-0.20935,-0.514173,-9.667683
4.630295,1.778357,1.665676,-10.430712,1.778357,1.665676,-10.430712
4.663615,3.530676,10.247699,-12.294066,3.530676,10.247699,-12.294066
4.696951,2.357026,2.925819,-9.449653,2.357026,2.925819,-9.449653
4.73028,8.573344,3.975863,-39.717632,8.573344,3.975863,-39.717632
4.763616,7.842188,3.036405,-19.955037,7.842188,3.036405,-19.955037
4.796938,4.865491,-4.150796,-3.632732,4.865491,-4.150796,-3.632732
4.830268,6.850205,-2.735174,-6.307749,6.850205,-2.735174,-6.307749
4.862751,9.41748,0.939309,-9.610369,9.41748,0.939309,-9.610369
4.896991,8.296504,5.292871,-10.401981,8.296504,5.292871,-10.401981
4.930285,4.049039,6.955853,-8.293511,4.049039,6.955853,-8.293511
4.963615,3.458697,6.911858,-8.24817,3.458697,6.911858,-8.24817
4.996891,5.579288,5.307985,-8.820255,5.579288,5.307985,-8.820255
5.030349,8.618985,8.815316,-13.936547,8.618985,8.815316,-13.936547
5.063615,3.362776,17.009016,-16.401765,3.362776,17.009016,-16.401765
5.09675,5.770831,25.097516,-17.114065,5.770831,25.097516,-17.114065
5.130217,1.059921,23.292074,1.938175,1.059921,23.292074,1.938175
5.163595,-4.770767,20.056046,13.34411,-4.770767,20.056046,13.34411
5.196216,-4.945699,19.856871,14.947086,-4.945699,19.856871,14.947086
5.230277,5.485013,20.84212,-20.532658,5.485013,20.84212,-20.532658
5.263594,12.893685,6.272883,-20.092708,12.893685,6.272883,-20.092708
5.296914,-6.030311,8.819357,-16.651369,-6.030311,8.819357,-16.651369
5.330261,1.89029,5.180489,-10.906277,1.89029,5.180489,-10.906277
5.363598,1.155992,2.851147,-8.967503,1.155992,2.851147,-8.967503
5.396936,1.29067,2.931056,-9.303601,1.29067,2.931056,-9.303601
5.43028,1.203578,2.780366,-9.210074,1.203578,2.780366,-9.210074
5.463591,1.258946,2.878232,-9.531507,1.258946,2.878232,-9.531507
5.496785,1.394223,2.914895,-9.516094,1.394223,2.914895,-9.516094
5.529975,1.33691,2.855786,-9.341012,1.33691,2.855786,-9.341012
5.563588,1.424152,2.793086,-9.27068,1.424152,2.793086,-9.27068
5.596928,1.385394,2.871349,-9.319763,1.385394,2.871349,-9.319763
5.630224,1.437171,2.867309,-9.309288,1.437171,2.867309,-9.309288
5.663584,1.442259,2.940035,-9.329938,1.442259,2.940035,-9.329938
5.696931,1.41248,3.106438,-9.396679,1.41248,3.106438,-9.396679
5.730249,1.490593,3.183803,-9.462672,1.490593,3.183803,-9.462672
5.763614,1.410385,3.126041,-9.405508,1.410385,3.126041,-9.405508
5.796329,1.526508,3.322822,-9.489009,1.526508,3.322822,-9.489009
5.829663,1.687972,3.187993,-9.38815,1.687972,3.187993,-9.38815
5.862998,2.000876,3.02593,-9.557695,2.000876,3.02593,-9.557695
5.896337,1.505558,1.333468,-10.28885,1.505558,1.333468,-10.28885
5.929668,2.378874,4.882101,-11.629352,2.378874,4.882101,-11.629352
5.962996,2.84142,3.084889,-11.386631,2.84142,3.084889,-11.386631
5.996327,3.449868,6.994611,-9.580441,3.449868,6.994611,-9.580441
6.029678,5.560732,10.008868,-29.751412,5.560732,10.008868,-29.751412
6.063003,9.399073,5.868847,-24.076203,9.399073,5.868847,-24.076203
6.096309,7.313949,-5.558787,-4.297297,7.313949,-5.558787,-4.297297
6.129665,8.113192,-1.914532,-6.140449,8.113192,-1.914532,-6.140449
6.162976,7.019601,2.225789,-10.583198,7.019601,2.225789,-10.583198
6.19629,4.189703,5.664584,-9.511306,4.189703,5.664584,-9.511306
6.229667,1.39153,8.560923,-10.287653,1.39153,8.560923,-10.287653
6.262984,1.855573,7.853262,-9.509211,1.855573,7.853262,-9.509211
6.296384,2.387404,4.575333,-7.84982,2.387404,4.575333,-7.84982
6.329592,3.665055,10.38133,-17.584094,3.665055,10.38133,-17.584094
6.362905,-0.624909,17.511218,-18.127597,-0.624909,17.511218,-18.127597
6.396331,3.158663,21.836348,-9.252573,3.158663,21.836348,-9.252573
6.429669,1.791076,20.780467,0.59109,1.791076,20.780467,0.59109
6.463521,-2.264696,22.373566,4.85756,-2.264696,22.373566,4.85756
6.496934,-2.304501,13.058143,9.365404,-2.304501,13.058143,9.365404
6.529875,4.572789,17.711739,-17.51017,4.572789,17.711739,-17.51017
6.563545,13.30655,3.548483,-26.162675,13.30655,3.548483,-26.162675
6.596935,-1.660139,3.158813,-8.066653,-1.660139,3.158813,-8.066653
6.63028,2.122536,3.317434,-9.713174,2.122536,3.317434,-9.713174
6.663918,1.028945,2.206485,-8.672407,1.028945,2.206485,-8.672407
6.696853,1.00186,2.826157,-9.043671,1.00186,2.826157,-9.043671
6.730259,1.121275,2.906515,-9.317368,1.121275,2.906515,-9.317368
6.763632,1.101821,2.826755,-9.239404,1.101821,2.826755,-9.239404
6.796915,1.114092,2.972956,-9.173262,1.114092,2.972956,-9.173262
6.830249,1.371627,3.108533,-8.926202,1.371627,3.108533,-8.926202
6.863616,1.39138,3.057355,-9.226086,1.39138,3.057355,-9.226086
6.896924,1.296656,2.907114,-9.356126,1.296656,2.907114,-9.356126
6.930266,1.457223,2.919085,-9.560538,1.457223,2.919085,-9.560538
6.963563,1.289174,2.756872,-9.239404,1.289174,2.756872,-9.239404
6.996904,1.318354,2.959189,-9.368546,1.318354,2.959189,-9.368546
7.03026,1.346338,2.911603,-9.452197,1.346338,2.911603,-9.452197
7.063632,1.258497,3.110628,-9.093952,1.258497,3.110628,-9.093952
7.096929,1.341998,3.290648,-9.648678,1.341998,3.290648,-9.648678
7.130282,1.390183,3.223908,-9.447857,1.390183,3.223908,-9.447857
7.163569,1.718949,2.897686,-9.537044,1.718949,2.897686,-9.537044
7.196931,-0.362884,-1.799307,-9.391591,-0.362884,-1.799307,-9.391591
7.230259,1.540873,2.303155,-10.63273,1.540873,2.303155,-10.63273
7.263598,0.821091,5.431291,-10.633777,0.821091,5.431291,-10.633777
7.296907,3.720423,4.577727,-9.089013,3.720423,4.577727,-9.089013
7.33025,5.043716,9.496341,-18.309712,5.043716,9.496341,-18.309712
7.363604,14.374701,8.911387,-26.161478,14.374701,8.911387,-26.161478
7.396922,9.843513,-4.613043,-5.993948,9.843513,-4.613043,-5.993948
7.430263,7.22117,-2.989866,-4.286223,7.22117,-2.989866,-4.286223
7.463593,4.39217,2.786052,-10.753043,4.39217,2.786052,-10.753043
7.496927,4.432723,5.956238,-11.616632,4.432723,5.956238,-11.616632
7.530245,1.548356,7.295393,-8.978128,1.548356,7.295393,-8.978128
7.563583,-0.101608,6.392747,-8.182027,-0.101608,6.392747,-8.182027
7.59693,1.868292,4.990742,-8.059919,1.868292,4.990742,-8.059919
7.630247,3.325814,7.125249,-14.653935,3.325814,7.125249,-14.653935
7.663529,2.004318,12.729527,-17.084735,2.004318,12.729527,-17.084735
7.696926,2.764504,19.850287,-15.118577,2.764504,19.850287,-15.118577
7.73026,-0.442793,21.939003,-5.742698,-0.442793,21.939003,-5.742698
7.76263,-2.561289,25.166053,10.584994,-2.561289,25.166053,10.584994
7.796914,-4.134784,15.234699,22.438212,-4.134784,15.234699,22.438212
7.830244,2.536598,26.947253,-29.227662,2.536598,26.947253,-29.227662
7.863012,5.857773,10.207445,-7.999014,5.857773,10.207445,-7.999014
7.896858,-4.087048,6.482532,-13.976651,-4.087048,6.482532,-13.976651
7.930281,2.327247,3.4575,-10.236026,2.327247,3.4575,-10.236026
7.963602,1.117833,2.610372,-9.083477,1.117833,2.610372,-9.083477
7.996912,0.808222,2.984778,-8.975734,0.808222,2.984778,-8.975734
8.030208,1.083265,2.832442,-10.118706,1.083265,2.832442,-10.118706
8.062694,1.189063,2.891551,-9.755224,1.189063,2.891551,-9.755224
8.096787,1.229766,2.82062,-9.420921,1.229766,2.82062,-9.420921
8.130245,1.194749,2.848304,-9.319613,1.194749,2.848304,-9.319613
8.163593,1.220338,2.838876,-9.297017,1.220338,2.838876,-9.297017
8.196968,1.371029,3.012462,-9.370941,1.371029,3.012462,-9.370941
8.230262,1.206272,2.728141,-9.286841,1.206272,2.728141,-9.286841
8.263157,1.235602,2.689832,-9.315722,1.235602,2.689832,-9.315722
8.296886,1.360853,3.02593,-9.455489,1.360853,3.02593,-9.455489
8.330227,1.317606,2.797276,-9.305098,1.317606,2.797276,-9.305098
8.363584,1.275257,2.942878,-9.309587,1.275257,2.942878,-9.309587
8.396971,1.415323,3.03865,-9.382164,1.415323,3.03865,-9.382164
8.430261,1.435674,3.057355,-9.517142,1.435674,3.057355,-9.517142
8.463595,1.703835,3.178267,-9.730533,1.703835,3.178267,-9.730533
8.496915,2.302257,3.082345,-10.044633,2.302257,3.082345,-10.044633
8.530261,2.680554,3.293941,-10.947429,2.680554,3.293941,-10.947429
8.563604,3.962396,6.622149,-12.53559,3.962396,6.622149,-12.53559
8.596915,2.893496,5.075889,-11.191796,2.893496,5.075889,-11.191796
8.630243,5.391037,19.895928,-16.068211,5.391037,19.895928,-16.068211
8.663579,12.41393,14.487383,-34.632166,12.41393,14.487383,-34.632166
8.696914,11.417906,2.637158,-17.796736,11.417906,2.637158,-17.796736
8.730281,8.835219,-5.877526,-2.040082,8.835219,-5.877526,-2.040082
8.763595,7.104748,-1.905553,-5.316964,7.104748,-1.905553,-5.316964
8.79693,6.811298,3.886227,-11.942106,6.811298,3.886227,-11.942106
8.830231,4.019858,6.122492,-10.609236,4.019858,6.122492,-10.609236
8.863594,-0.521206,8.527104,-10.345565,-0.521206,8.527104,-10.345565
8.89693,-0.378896,6.523235,-9.142137,-0.378896,6.523235,-9.142137
8.930201,2.905019,5.727883,-11.731857,2.905019,5.727883,-11.731857
8.963594,6.096753,12.055385,-19.772023,6.096753,12.055385,-19.772023
8.996927,2.818375,21.961898,-17.709195,2.818375,21.961898,-17.709195
9.030224,1.371328,24.258169,-2.611269,1.371328,24.258169,-2.611269
9.063596,-0.130638,23.595849,10.908672,-0.130638,23.595849,10.908672
9.096923,-5.866602,16.301504,11.987298,-5.866602,16.301504,11.987298
9.13017,-1.580529,22.730315,-20.828054,-1.580529,22.730315,-20.828054
9.163258,14.012865,5.79627,-22.714004,14.012865,5.79627,-22.714004
9.196927,-4.617083,7.568042,-14.474214,-4.617083,7.568042,-14.474214
9.230198,2.27562,3.62929,-10.025479,2.27562,3.62929,-10.025479
9.263601,1.603424,3.243062,-10.047327,1.603424,3.243062,-10.047327
9.296875,1.21525,2.830197,-9.247485,1.21525,2.830197,-9.247485
9.330688,1.397366,2.968018,-9.389945,1.397366,2.968018,-9.389945
9.3636,1.21121,2.831693,-9.368397,1.21121,2.831693,-9.368397
9.396889,0.981508,2.802962,-7.735642,0.981508,2.802962,-7.735642
9.430743,1.314763,2.748791,-9.112358,1.314763,2.748791,-9.112358
9.46358,1.168262,2.842767,-9.078239,1.168262,2.842767,-9.078239
9.496911,1.384347,2.831245,-9.247784,1.384347,2.831245,-9.247784
9.530253,1.465304,2.77438,-9.283399,1.465304,2.77438,-9.283399
9.563591,1.396169,3.054213,-9.490954,1.396169,3.054213,-9.490954
9.596912,1.489995,2.820171,-9.160842,1.489995,2.820171,-9.160842
9.630243,1.391679,2.843665,-9.063724,1.391679,2.843665,-9.063724
9.663587,1.443606,2.959937,-9.214713,1.443606,2.959937,-9.214713
9.696926,1.371927,3.040745,-9.452346,1.371927,3.040745,-9.452346
9.730263,1.452734,3.13502,-9.529263,1.452734,3.13502,-9.529263
9.763576,1.779554,3.295287,-9.824957,1.779554,3.295287,-9.824957
9.796928,-0.340438,-1.319851,-8.771022,-0.340438,-1.319851,-8.771022
9.830256,1.760998,2.191521,-10.478897,1.760998,2.191521,-10.478897
9.863603,3.031467,11.420151,-11.095426,3.031467,11.420151,-11.095426
9.896926,5.343899,2.77019,-9.833188,5.343899,2.77019,-9.833188
9.930251,5.175701,14.440993,-19.200986,5.175701,14.440993,-19.200986
9.963596,13.592368,20.860077,-34.584131,13.592368,20.860077,-34.584131
9.996895,8.782096,-2.927016,-5.558637,8.782096,-2.927016,-5.558637
10.030256,8.153895,-3.156568,-2.720808,8.153895,-3.156568,-2.720808
10.063583,6.463079,-0.315747,-7.072724,6.463079,-0.315747,-7.072724
10.096898,5.631214,3.310252,-9.859525,5.631214,3.310252,-9.859525
10.130274,4.68128,8.793618,-14.577168,4.68128,8.793618,-14.577168
10.163625,-1.862456,8.341247,-9.017035,-1.862456,8.341247,-9.017035
10.196915,-0.084399,4.226515,-5.637948,-0.084399,4.226515,-5.637948
10.230252,5.419768,7.675486,-16.044866,5.419768,7.675486,-16.044866
10.263579,3.273439,18.236238,-17.597562,3.273439,18.236238,-17.597562
10.296913,6.2027,30.515938,-15.581422,6.2027,30.515938,-15.581422
10.330279,1.729573,23.798316,3.493415,1.729573,23.798316,3.493415
10.363595,-5.4066,24.226595,16.896784,-5.4066,24.226595,16.896784
10.396915,-7.862989,-9.621742,-6.360125,-7.862989,-9.621742,-6.360125
10.430252,7.363032,14.230895,-28.52434,7.363032,14.230895,-28.52434
10.463588,-4.50126,5.399267,-16.352383,-4.50126,5.399267,-16.352383
10.496913,-0.950233,1.311321,-8.940268,-0.950233,1.311321,-8.940268
10.530211,1.851083,3.508828,-10.409014,1.851083,3.508828,-10.409014
10.563629,1.309226,3.119906,-9.821964,1.309226,3.119906,-9.821964
10.596881,1.333169,3.349159,-10.607889,1.333169,3.349159,-10.607889
10.630261,1.057078,2.940035,-9.016736,1.057078,2.940035,-9.016736
10.66358,1.141776,2.793385,-9.470154,1.141776,2.793385,-9.470154
10.69693,1.204326,2.523279,-9.133906,1.204326,2.523279,-9.133906
10.730246,1.252661,2.730086,-9.029306,1.252661,2.730086,-9.029306
10.763591,1.410085,2.811342,-9.383062,1.410085,2.811342,-9.383062
10.796929,1.254606,2.714523,-9.5764,1.254606,2.714523,-9.5764
10.830246,1.368036,2.726195,-9.618151,1.368036,2.726195,-9.618151
10.86359,1.33706,2.744452,-9.356575,1.33706,2.744452,-9.356575
10.896931,1.440912,2.785454,-9.37109,1.440912,2.785454,-9.37109
10.930248,1.368036,2.843066,-9.398924,1.368036,2.843066,-9.398924
10.96365,1.458869,3.095065,-9.515945,1.458869,3.095065,-9.515945
10.99693,1.362649,3.086535,-9.57236,1.362649,3.086535,-9.57236
11.030254,1.59699,2.964726,-9.620246,1.59699,2.964726,-9.620246
11.063521,2.20439,2.935695,-9.929408,2.20439,2.935695,-9.929408
11.096799,-0.43606,-1.529052,-9.766297,-0.43606,-1.529052,-9.766297
11.130247,1.45004,1.736756,-11.390372,1.45004,1.736756,-11.390372
11.163458,5.176898,5.692717,-12.133349,5.176898,5.692717,-12.133349
11.196911,4.583713,9.724547,-11.405486,4.583713,9.724547,-11.405486
11.230323,10.071569,0.028582,-30.067308,10.071569,0.028582,-30.067308
11.263595,11.632644,0.632241,-17.89999,11.632644,0.632241,-17.89999
11.296916,8.173647,-5.400913,-3.684808,8.173647,-5.400913,-3.684808
11.330225,7.383233,-0.697486,-7.205757,7.383233,-0.697486,-7.205757
11.363593,7.325621,4.348923,-12.054188,7.325621,4.348923,-12.054188
11.396929,4.795757,6.842274,-10.59487,4.795757,6.842274,-10.59487
11.430261,-2.029158,6.986829,-7.636878,-2.029158,6.986829,-7.636878
11.463594,-0.231947,5.665183,-9.695516,-0.231947,5.665183,-9.695516
11.496952,3.096711,6.887466,-13.88477,3.096711,6.887466,-13.88477
11.530266,4.783486,13.769096,-14.420492,4.783486,13.769096,-14.420492
11.563589,3.121702,26.853576,-12.859567,3.121702,26.853576,-12.859567
11.596882,1.50047,27.714772,-2.073902,1.50047,27.714772,-2.073902
11.630226,-5.014535,27.387054,18.192542,-5.014535,27.387054,18.192542
11.663594,-9.062377,3.152378,-2.4935,-9.062377,3.152378,-2.4935
11.696953,19.176594,14.226256,-29.935473,19.176594,14.226256,-29.935473
11.730259,-3.123497,5.116741,-11.134333,-3.123497,5.116741,-11.134333
11.763578,2.329492,4.104257,-10.332696,2.329492,4.104257,-10.332696
11.796901,1.347086,3.238722,-9.100087,1.347086,3.238722,-9.100087
11.830266,1.361302,2.839924,-9.408501,1.361302,2.839924,-9.408501
11.863595,1.587562,2.827055,-9.571761,1.587562,2.827055,-9.571761
11.89687,2.280559,2.989716,-11.995079,2.280559,2.989716,-11.995079
11.930251,1.170956,2.731882,-9.293725,1.170956,2.731882,-9.293725
11.9636,1.327034,2.672473,-9.221896,1.327034,2.672473,-9.221896
11.996894,1.678844,2.917439,-10.14235,1.678844,2.917439,-10.14235
12.030282,1.350827,2.8498,-9.272476,1.350827,2.8498,-9.272476
12.063617,1.335414,2.819572,-9.267088,1.335414,2.819572,-9.267088
12.097269,1.517978,2.846358,-9.814183,1.517978,2.846358,-9.814183
12.129302,1.365642,2.925071,-9.292378,1.365642,2.925071,-9.292378
12.163468,1.467399,2.835285,-9.221896,1.467399,2.835285,-9.221896
12.197098,1.463658,2.999892,-9.478534,1.463658,2.999892,-9.478534
12.230286,1.425648,3.03835,-9.53899,1.425648,3.03835,-9.53899
12.263616,1.510795,3.125143,-9.783656,1.510795,3.125143,-9.783656
12.296965,1.837017,3.078006,-9.895289,1.837017,3.078006,-9.895289
12.330294,0.169845,-0.903245,-8.80963,0.169845,-0.903245,-8.80963
12.363607,2.271281,2.491106,-10.953564,2.271281,2.491106,-10.953564
12.396923,1.498076,6.372994,-11.436911,1.498076,6.372994,-11.436911
12.430288,4.67709,3.392705,-9.118343,4.67709,3.392705,-9.118343
12.463613,2.619799,7.298685,-18.703423,2.619799,7.298685,-18.703423
12.496983,12.88755,9.869701,-27.537894,12.88755,9.869701,-27.537894
12.53028,8.550748,-4.356256,-5.2809,8.550748,-4.356256,-5.2809
12.56361,8.06366,-2.270532,-4.222475,8.06366,-2.270532,-4.222475
12.59695,4.909935,3.190837,-10.844924,4.909935,3.190837,-10.844924
12.629899,4.184166,5.564473,-11.129096,4.184166,5.564473,-11.129096
12.663589,1.952242,6.780172,-9.381116,1.952242,6.780172,-9.381116
12.696914,-0.314101,6.075953,-8.226022,-0.314101,6.075953,-8.226022
12.730208,1.97813,4.171147,-8.291117,1.97813,4.171147,-8.291117
12.76355,3.878296,10.361128,-17.344964,3.878296,10.361128,-17.344964
12.796919,-0.865535,22.593691,-16.133605,-0.865535,22.593691,-16.133605
12.830261,-2.016289,26.461213,-6.509169,-2.016289,26.461213,-6.509169
12.863515,1.683034,24.035351,0.4193,1.683034,24.035351,0.4193
12.896926,-7.750457,25.339639,18.373909,-7.750457,25.339639,18.373909
12.930258,-3.936358,-11.988645,-21.259175,-3.936358,-11.988645,-21.259175
12.963581,16.450249,8.329276,-33.326382,16.450249,8.329276,-33.326382
12.996927,-2.85414,6.812794,-12.130207,-2.85414,6.812794,-12.130207
13.030257,2.026016,3.862434,-10.018146,2.026016,3.862434,-10.018146
13.063593,0.995874,3.181858,-9.54737,0.995874,3.181858,-9.54737
13.096741,1.350079,3.007674,-9.410746,1.350079,3.007674,-9.410746
13.129679,1.341549,2.962631,-9.445912,1.341549,2.962631,-9.445912
13.163577,1.263435,2.934947,-9.352983,1.263435,2.934947,-9.352983
13.196979,1.286331,2.804758,-9.34176,1.286331,2.804758,-9.34176
13.230247,1.319252,2.834537,-9.356276,1.319252,2.834537,-9.356276
13.263601,1.863653,2.427358,-11.846334,1.863653,2.427358,-11.846334
13.296916,1.511394,2.876287,-9.682048,1.511394,2.876287,-9.682048
13.330258,1.544465,2.688336,-10.170184,1.544465,2.688336,-10.170184
13.363592,1.345589,2.832741,-9.57221,1.345589,2.832741,-9.57221
13.396928,1.399162,2.844712,-9.404161,1.399162,2.844712,-9.404161
13.430259,1.506605,2.87943,-9.633414,1.506605,2.87943,-9.633414
13.463595,1.435226,2.86237,-9.350888,1.435226,2.86237,-9.350888
13.496913,1.342896,2.861472,-9.428852,1.342896,2.861472,-9.428852
13.530188,1.425948,3.125143,-9.416881,1.425948,3.125143,-9.416881
13.563631,1.909743,2.908311,-9.621742,1.909743,2.908311,-9.621742
13.596916,0.361537,-0.168199,-9.117296,0.361537,-0.168199,-9.117296
13.630264,2.512056,2.152015,-10.976909,2.512056,2.152015,-10.976909
13.663589,1.592201,11.166506,-11.900954,1.592201,11.166506,-11.900954
13.696952,4.621573,1.602526,-9.994652,4.621573,1.602526,-9.994652
13.730268,4.839453,16.564876,-15.943857,4.839453,16.564876,-15.943857
13.76361,13.688738,19.088305,-33.39028,13.688738,19.088305,-33.39028
13.79693,8.367285,-1.667771,-8.59175,8.367285,-1.667771,-8.59175
13.83026,7.340884,-3.397493,-2.773782,7.340884,-3.397493,-2.773782
13.863557,8.117082,1.612702,-9.831691,8.117082,1.612702,-9.831691
13.896926,6.035699,4.219482,-9.586426,6.035699,4.219482,-9.586426
13.930259,4.438111,6.284555,-8.647417,4.438111,6.284555,-8.647417
13.96358,0.358245,7.499656,-8.273459,0.358245,7.499656,-8.273459
13.996918,1.665227,5.332826,-8.272861,1.665227,5.332826,-8.272861
14.030275,1.962867,6.767303,-12.10387,1.962867,6.767303,-12.10387
14.063598,2.89604,14.464936,-17.922885,2.89604,14.464936,-17.922885
14.096781,-0.571786,24.980496,-13.896742,-0.571786,24.980496,-13.896742
14.130247,0.982556,26.369332,-5.15939,0.982556,26.369332,-5.15939
14.163623,-4.821196,26.062863,15.668814,-4.821196,26.062863,15.668814
14.195917,-10.133222,2.905467,6.93625,-10.133222,2.905467,6.93625
14.230237,21.306612,18.395458,-35.936005,21.306612,18.395458,-35.936005
14.263626,-2.116101,-0.025439,-6.823269,-2.116101,-0.025439,-6.823269
14.296931,2.013446,1.854525,-8.33167,2.013446,1.854525,-8.33167
14.330276,0.887083,2.784107,-9.259307,0.887083,2.784107,-9.259307
14.363517,1.138783,3.066334,-9.430349,1.138783,3.066334,-9.430349
14.396939,1.234854,2.922377,-9.214264,1.234854,2.922377,-9.214264
14.430255,0.864487,2.782461,-8.295157,0.864487,2.782461,-8.295157
14.463531,0.935867,2.857731,-9.194063,0.935867,2.857731,-9.194063
14.496938,1.024306,2.802962,-9.175956,1.024306,2.802962,-9.175956
14.530277,1.195348,2.528816,-9.217257,1.195348,2.528816,-9.217257
14.563535,1.254307,2.938838,-9.357173,1.254307,2.938838,-9.357173
14.596927,1.194749,2.801615,-9.328143,1.194749,2.801615,-9.328143
14.630283,1.315511,2.686241,-9.381116,1.315511,2.686241,-9.381116
14.66258,1.420411,2.90427,-9.17431,1.420411,2.90427,-9.17431
14.696916,1.181132,2.931505,-9.281155,1.181132,2.931505,-9.281155
14.730261,1.464705,2.80371,-9.249431,1.464705,2.80371,-9.249431
14.763618,1.405147,2.873294,-9.449054,1.405147,2.873294,-9.449054
14.796949,1.171555,2.928213,-9.342957,1.171555,2.928213,-9.342957
14.830269,1.435974,3.014557,-9.893793,1.435974,3.014557,-9.893793
14.863896,2.0745,3.136815,-10.194426,2.0745,3.136815,-10.194426
14.896725,-0.797896,-2.021975,-8.787932,-0.797896,-2.021975,-8.787932
14.93025,4.347577,3.689896,-12.184228,4.347577,3.689896,-12.184228
14.963528,3.136965,7.570886,-12.482167,3.136965,7.570886,-12.482167
14.996274,4.095129,4.223971,-9.39638,4.095129,4.223971,-9.39638
15.030251,7.945143,6.891956,-32.793055,7.945143,6.891956,-32.793055
15.063596,9.099039,3.643207,-20.799921,9.099039,3.643207,-20.799921
15.096913,7.595277,-5.478129,-4.20377,7.595277,-5.478129,-4.20377
15.130259,8.603721,-0.693296,-7.453566,8.603721,-0.693296,-7.453566
15.163593,6.573216,3.690345,-10.688397,6.573216,3.690345,-10.688397
15.19693,4.653746,5.130957,-8.593994,4.653746,5.130957,-8.593994
15.229604,-0.389221,7.931974,-10.191283,-0.389221,7.931974,-10.191283
15.263585,-0.262773,6.13566,-8.38614,-0.262773,6.13566,-8.38614
15.296912,1.084462,4.100666,-8.005299,1.084462,4.100666,-8.005299
15.330002,2.452648,8.042261,-10.324316,2.452648,8.042261,-10.324316
15.363589,1.449741,22.166161,-15.999375,1.449741,22.166161,-15.999375
15.396926,-1.923361,25.521605,-8.413824,-1.923361,25.521605,-8.413824
15.430323,-0.401941,23.321404,5.78789,-0.401941,23.321404,5.78789
15.463602,-6.426267,23.590911,26.140677,-6.426267,23.590911,26.140677
15.496911,2.819872,7.882891,-44.911739,2.819872,7.882891,-44.911739
15.530244,-1.587712,-1.692013,-1.882957,-1.587712,-1.692013,-1.882957
15.563749,1.955833,3.605647,-10.801078,1.955833,3.605647,-10.801078
15.597006,1.137735,3.34452,-10.277777,1.137735,3.34452,-10.277777
15.630284,1.342896,2.873294,-9.858477,1.342896,2.873294,-9.858477
15.663582,1.286031,2.889007,-9.481377,1.286031,2.889007,-9.481377
15.696928,1.390632,2.997947,-9.587025,1.390632,2.997947,-9.587025
15.730257,1.312518,2.903821,-9.460726,1.312518,2.903821,-9.460726
15.763579,1.329278,2.865662,-9.349991,1.329278,2.865662,-9.349991
15.79691,0.922698,2.757171,-7.971779,0.922698,2.757171,-7.971779
15.830214,0.844286,2.669481,-7.65289,0.844286,2.669481,-7.65289
15.86358,1.176044,2.717815,-8.996384,1.176044,2.717815,-8.996384
15.896925,1.019368,2.847705,-9.355228,1.019368,2.847705,-9.355228
15.930245,1.483859,2.951109,-9.272027,1.483859,2.951109,-9.272027
15.96355,1.47533,2.925669,-9.560389,1.47533,2.925669,-9.560389
15.996897,1.473384,2.849202,-9.426458,1.473384,2.849202,-9.426458
16.030258,1.534738,2.898285,-9.372886,1.534738,2.898285,-9.372886
16.063529,1.441361,3.034759,-9.424513,1.441361,3.034759,-9.424513
16.096912,1.586814,3.037602,-9.545724,1.586814,3.037602,-9.545724
16.130262,2.016439,3.038201,-9.848601,2.016439,3.038201,-9.848601
16.163595,0.288661,-0.573132,-8.964211,0.288661,-0.573132,-8.964211
16.196929,2.480332,1.247124,-11.762833,2.480332,1.247124,-11.762833
16.230261,0.808222,9.025565,-11.811767,0.808222,9.025565,-11.811767
16.263594,4.078818,1.551049,-8.877867,4.078818,1.551049,-8.877867
16.296868,2.462375,3.685706,-32.680673,2.462375,3.685706,-32.680673
16.33018,8.237695,9.931952,-27.892697,8.237695,9.931952,-27.892697
16.363601,5.719204,-4.71091,-3.842083,5.719204,-4.71091,-3.842083
16.396914,8.500917,-2.407156,-5.449697,8.500917,-2.407156,-5.449697
16.430257,7.309908,1.25745,-10.034308,7.309908,1.25745,-10.034308
16.463596,4.378403,3.457351,-10.380731,4.378403,3.457351,-10.380731
16.496849,0.242871,6.721363,-11.148549,0.242871,6.721363,-11.148549
16.530258,-0.705417,6.238166,-10.892211,-0.705417,6.238166,-10.892211
16.562969,0.730707,4.260634,-8.666272,0.730707,4.260634,-8.666272
16.596893,6.012055,9.648229,-16.696861,6.012055,9.648229,-16.696861
16.63026,3.863482,20.697565,-15.817708,3.863482,20.697565,-15.817708
16.663577,0.348518,29.089541,-8.007095,0.348518,29.089541,-8.007095
16.696882,-2.763456,25.157673,12.455082,-2.763456,25.157673,12.455082
16.730289,-4.740389,21.647498,30.417623,-4.740389,21.647498,30.417623
16.763625,0.873616,23.492746,-35.072416,0.873616,23.492746,-35.072416
16.796911,-5.143378,0.526594,-11.970837,-5.143378,0.526594,-11.970837
16.83024,-1.780152,3.951621,-11.631597,-1.780152,3.951621,-11.631597
16.863527,1.436872,3.388066,-9.719908,1.436872,3.388066,-9.719908
16.896943,1.268523,3.129633,-8.704132,1.268523,3.129633,-8.704132
16.930319,1.255355,3.025182,-7.753001,1.255355,3.025182,-7.753001
16.963535,1.831929,2.986724,-10.477849,1.831929,2.986724,-10.477849
16.99691,1.499871,2.872247,-9.685939,1.499871,2.872247,-9.685939
17.030318,1.560926,2.930308,-9.326796,1.560926,2.930308,-9.326796
17.062833,1.543417,2.923574,-9.199899,1.543417,2.923574,-9.199899
17.096779,1.55913,2.988669,-9.252274,1.55913,2.988669,-9.252274
17.130202,1.668818,2.927465,-9.095149,1.668818,2.927465,-9.095149
17.163579,1.578733,3.082345,-9.339815,1.578733,3.082345,-9.339815
17.196927,1.588011,3.003334,-9.246587,1.588011,3.003334,-9.246587
17.230235,1.649963,3.227798,-9.42167,1.649963,3.227798,-9.42167
17.263576,1.778656,3.12215,-10.110326,1.778656,3.12215,-10.110326
17.296924,1.597139,3.129483,-9.535847,1.597139,3.129483,-9.535847
17.330292,1.715656,3.353199,-9.353881,1.715656,3.353199,-9.353881
17.363592,2.113108,3.296036,-9.420622,2.113108,3.296036,-9.420622
17.396927,1.33676,1.434777,-9.200497,1.33676,1.434777,-9.200497
17.430176,3.063341,2.627281,-10.288551,3.063341,2.627281,-10.288551
17.463598,3.196074,8.390929,-11.710907,3.196074,8.390929,-11.710907
17.496912,5.304244,2.71991,-11.649254,5.304244,2.71991,-11.649254
17.53022,4.612744,16.846803,-15.442554,4.612744,16.846803,-15.442554
17.562672,11.042901,14.97477,-30.019722,11.042901,14.97477,-30.019722
17.596916,6.386162,-0.534525,-12.233461,6.386162,-0.534525,-12.233461
17.63065,6.533261,-2.530612,-5.868248,6.533261,-2.530612,-5.868248
17.663504,7.301079,0.971632,-9.535548,7.301079,0.971632,-9.535548
17.696912,4.61454,2.990914,-8.886097,4.61454,2.990914,-8.886097
17.730219,2.399076,4.527298,-7.882293,2.399076,4.527298,-7.882293
17.763577,1.309675,6.200455,-9.650623,1.309675,6.200455,-9.650623
17.796913,2.750587,5.387146,-10.063937,2.750587,5.387146,-10.063937
17.830292,3.249646,7.744771,-14.948582,3.249646,7.744771,-14.948582
17.863578,2.670827,13.72166,-16.094847,2.670827,13.72166,-16.094847
17.896929,0.661123,25.02045,-13.693377,0.661123,25.02045,-13.693377
17.930301,0.952777,24.101044,-0.055218,0.952777,24.101044,-0.055218
17.96359,-3.71324,28.15128,15.536529,-3.71324,28.15128,15.536529
17.996915,-7.369616,8.823098,6.103038,-7.369616,8.823098,6.103038
18.029916,1.1943,24.731041,-24.141448,1.1943,24.731041,-24.141448
18.063597,-2.745798,6.341868,-18.222022,-2.745798,6.341868,-18.222022
18.096982,-1.437769,2.369895,-10.331648,-1.437769,2.369895,-10.331648
18.130244,0.903993,2.886612,-9.145429,0.903993,2.886612,-9.145429
18.163604,1.109453,2.779019,-9.491104,1.109453,2.779019,-9.491104
18.196887,1.34963,2.814933,-9.343706,1.34963,2.814933,-9.343706
18.230285,2.010303,2.764953,-11.609898,2.010303,2.764953,-11.609898
18.263567,1.404848,2.889156,-9.83633,1.404848,2.889156,-9.83633
18.296947,1.451686,2.918486,-8.785388,1.451686,2.918486,-8.785388
18.3303,1.252212,2.871499,-9.289086,1.252212,2.871499,-9.289086
18.363617,1.354119,2.78695,-9.208129,1.354119,2.78695,-9.208129
18.396955,1.301295,2.780815,-9.268136,1.301295,2.780815,-9.268136
18.430278,1.363098,2.712877,-9.39638,1.363098,2.712877,-9.39638
18.46362,1.405147,2.871648,-9.315423,1.405147,2.871648,-9.315423
18.496937,1.397216,2.941232,-9.290582,1.397216,2.941232,-9.290582
18.530289,1.373872,2.83334,-9.372886,1.373872,2.83334,-9.372886
18.563616,1.385544,2.807302,-9.38815,1.385544,2.807302,-9.38815
18.596947,1.429838,2.86686,-9.591365,1.429838,2.86686,-9.591365
18.630223,1.707276,2.936892,-9.929707,1.707276,2.936892,-9.929707
18.663615,1.2362,1.296357,-9.792036,1.2362,1.296357,-9.792036
18.69695,3.048825,3.651737,-11.095576,3.048825,3.651737,-11.095576
18.730251,3.314142,10.678221,-11.656288,3.314142,10.678221,-11.656288
18.763612,2.327546,2.112509,-10.734188,2.327546,2.112509,-10.734188
18.796945,3.3318,18.05906,-17.315934,3.3318,18.05906,-17.315934
18.830268,8.375665,15.357257,-34.931452,8.375665,15.357257,-34.931452
18.863614,5.361108,-3.732694,-6.988775,5.361108,-3.732694,-6.988775
18.896932,8.028793,-2.641497,-5.705886,8.028793,-2.641497,-5.705886
18.930245,11.166955,0.523451,-7.944544,11.166955,0.523451,-7.944544
18.963593,7.146648,4.412671,-8.769077,7.146648,4.412671,-8.769077
18.996917,4.699537,6.250586,-8.656096,4.699537,6.250586,-8.656096
19.030247,2.808948,7.85416,-10.405722,2.808948,7.85416,-10.405722
19.063576,2.29657,4.311363,-5.839517,2.29657,4.311363,-5.839517
19.096896,6.147781,8.30668,-13.037941,6.147781,8.30668,-13.037941
19.130261,3.141005,19.565366,-19.616694,3.141005,19.565366,-19.616694
19.163609,1.147761,25.413562,-13.202698,1.147761,25.413562,-13.202698
19.196777,-0.504746,22.620327,3.896852,-0.504746,22.620327,3.896852
19.229941,-0.212493,24.022332,14.168045,-0.212493,24.022332,14.168045
19.263558,-9.94976,-10.834598,-5.080378,-9.94976,-10.834598,-5.080378
19.296915,19.769928,-0.902048,-28.201859,19.769928,-0.902048,-28.201859
19.33021,-1.88191,7.23778,-20.960338,-1.88191,7.23778,-20.960338
19.36358,-1.170507,1.116336,-7.76168,-1.170507,1.116336,-7.76168
19.39691,1.875774,2.947218,-10.684955,1.875774,2.947218,-10.684955
19.43026,1.360703,3.167492,-9.981633,1.360703,3.167492,-9.981633
19.463587,1.300397,2.965774,-9.353283,1.300397,2.965774,-9.353283
19.49693,1.317905,3.065585,-9.264544,1.317905,3.065585,-9.264544
19.530248,1.16916,2.845461,-9.250628,1.16916,2.845461,-9.250628
19.563596,1.265231,2.819722,-9.284297,1.265231,2.819722,-9.284297
19.596932,1.883705,3.547436,-11.084801,1.883705,3.547436,-11.084801
19.630247,1.309376,2.852793,-9.48033,1.309376,2.852793,-9.48033
19.663581,1.506156,2.685043,-9.697611,1.506156,2.685043,-9.697611
19.696945,1.305335,2.793086,-9.427356,1.305335,2.793086,-9.427356
19.730247,1.604621,3.003334,-9.562484,1.604621,3.003334,-9.562484
19.763555,1.396618,2.908909,-9.418377,1.396618,2.908909,-9.418377
19.796926,1.43747,3.01755,-9.378273,1.43747,3.01755,-9.378273
19.830249,1.561225,3.192183,-10.049422,1.561225,3.192183,-10.049422
19.863593,1.598187,3.148338,-9.775725,1.598187,3.148338,-9.775725
19.896904,1.93638,2.51864,-9.754924,1.93638,2.51864,-9.754924
19.930257,-0.015114,-0.199025,-10.006325,-0.015114,-0.199025,-10.006325
19.962711,3.564495,2.727243,-12.600086,3.564495,2.727243,-12.600086
19.996407,5.370236,4.720187,-12.917329,5.370236,4.720187,-12.917329
20.030264,3.647248,11.164711,-10.782822,3.647248,11.164711,-10.782822
20.063604,7.087389,1.769079,-32.559761,7.087389,1.769079,-32.559761
20.096708,9.746395,1.855722,-16.425558,9.746395,1.855722,-16.425558
20.130261,7.991831,-5.238551,-2.494698,7.991831,-5.238551,-2.494698
20.163574,8.045852,-0.7123,-6.16903,8.045852,-0.7123,-6.16903
20.196867,5.403158,4.420752,-10.441486,5.403158,4.420752,-10.441486
20.230249,4.793064,5.4904,-10.332995,4.793064,5.4904,-10.332995
20.263595,-0.166104,7.968188,-10.358135,-0.166104,7.968188,-10.358135
20.297344,-1.330775,6.260911,-9.171616,-1.330775,6.260911,-9.171616
20.330293,1.062166,5.18842,-10.224504,1.062166,5.18842,-10.224504
20.363578,3.864529,16.388746,-20.72884,3.864529,16.388746,-20.72884
20.396842,2.833639,30.220692,-11.314802,2.833639,30.220692,-11.314802
20.430262,0.292552,27.464269,4.142416,0.292552,27.464269,4.142416
20.463595,-4.716297,30.108311,20.457238,-4.716297,30.108311,20.457238
20.496864,-8.733761,-9.058336,-30.38919,-8.733761,-9.058336,-30.38919
20.530217,10.855548,22.414568,-26.232857,10.855548,22.414568,-26.232857
20.563591,-0.228355,5.01244,-10.279423,-0.228355,5.01244,-10.279423
20.596914,1.942216,3.620312,-9.842615,1.942216,3.620312,-9.842615
20.630256,1.289174,2.916541,-9.231174,1.289174,2.916541,-9.231174
20.663592,1.399461,2.863567,-9.448755,1.399461,2.863567,-9.448755
20.696926,1.34095,2.825259,-9.265592,1.34095,2.825259,-9.265592
20.730248,1.186669,2.937341,-8.83881,1.186669,2.937341,-8.83881
20.763596,0.977917,2.637008,-8.149405,0.977917,2.637008,-8.149405
20.796929,1.218543,2.870601,-8.842701,1.218543,2.870601,-8.842701
20.830176,0.921501,2.934049,-8.162574,0.921501,2.934049,-8.162574
20.863585,1.544914,2.902774,-9.348793,1.544914,2.902774,-9.348793
20.896827,1.453632,2.976847,-9.312281,1.453632,2.976847,-9.312281
20.929999,1.316559,2.855187,-9.260803,1.316559,2.855187,-9.260803
20.963548,1.486403,3.002735,-8.673754,1.486403,3.002735,-8.673754
20.996931,1.447945,2.87509,-9.220699,1.447945,2.87509,-9.220699
21.02933,1.511244,3.028025,-9.420772,1.511244,3.028025,-9.420772
21.063577,1.448993,3.121402,-9.488261,1.448993,3.121402,-9.488261
21.096849,1.451088,3.224806,-9.508911,1.451088,3.224806,-9.508911
21.130273,1.6555,3.04673,-9.609471,1.6555,3.04673,-9.609471
21.1636,2.038137,2.53121,-9.51804,2.038137,2.53121,-9.51804
21.196916,1.492389,2.251977,-10.470816,1.492389,2.251977,-10.470816
21.230219,-1.217495,9.956643,-10.283014,-1.217495,9.956643,-10.283014
21.263591,5.106715,2.619649,-11.077618,5.106715,2.619649,-11.077618
21.296939,6.1608,18.314351,-16.175205,6.1608,18.314351,-16.175205
21.330219,14.477955,17.552369,-31.530667,14.477955,17.552369,-31.530667
21.363581,10.859738,-1.04765,-11.481954,10.859738,-1.04765,-11.481954
21.396954,7.98824,-4.301337,-2.487066,7.98824,-4.301337,-2.487066
21.430236,6.924278,1.317905,-8.020413,6.924278,1.317905,-8.020413
21.463594,5.122128,3.806318,-9.59331,5.122128,3.806318,-9.59331
21.496839,4.843044,6.240859,-10.64964,4.843044,6.240859,-10.64964
21.530227,-0.461948,6.906621,-9.989864,-0.461948,6.906621,-9.989864
21.562679,0.449078,5.865405,-10.304563,0.449078,5.865405,-10.304563
21.596918,3.324468,7.436357,-14.609192,3.324468,7.436357,-14.609192
21.630267,7.530482,20.923526,-22.343188,7.530482,20.923526,-22.343188
21.663582,1.502565,30.040971,-10.472313,1.502565,30.040971,-10.472313
21.696881,-0.458057,21.416599,9.396081,-0.458057,21.416599,9.396081
21.730263,-6.993713,24.510318,19.338358,-6.993713,24.510318,19.338358
21.76358,-2.561438,-8.640084,-23.705089,-2.561438,-8.640084,-23.705089
21.79693,16.536443,1.688272,-27.55615,16.536443,1.688272,-27.55615
21.830259,-2.692825,2.28849,-7.930029,-2.692825,2.28849,-7.930029
21.863592,2.449805,4.35012,-9.589719,2.449805,4.35012,-9.589719
21.896658,0.803882,2.962332,-8.319549,0.803882,2.962332,-8.319549
21.929792,1.228569,3.060198,-9.648528,1.228569,3.060198,-9.648528
21.963641,1.333468,3.005878,-9.736668,1.333468,3.005878,-9.736668
21.996913,1.241438,2.905617,-9.404461,1.241438,2.905617,-9.404461
22.030217,1.168113,2.768095,-9.263946,1.168113,2.768095,-9.263946
22.06359,1.223331,2.751934,-9.303751,1.223331,2.751934,-9.303751
22.096967,1.224079,2.823762,-9.359418,1.224079,2.823762,-9.359418
22.130244,1.341848,2.896339,-9.374382,1.341848,2.896339,-9.374382
22.163579,1.354269,2.8498,-9.30001,1.354269,2.8498,-9.30001
22.196948,1.393325,3.123048,-9.460128,1.393325,3.123048,-9.460128
22.230244,1.446299,3.152678,-9.401617,1.446299,3.152678,-9.401617
22.263588,1.327782,3.079053,-9.319613,1.327782,3.079053,-9.319613
22.296902,1.30743,2.940783,-9.354779,1.30743,2.940783,-9.354779
22.330246,1.331373,3.157017,-9.397427,1.331373,3.157017,-9.397427
22.363583,1.355765,3.146991,-9.417928,1.355765,3.146991,-9.417928
22.396925,1.325088,3.199815,-9.440824,1.325088,3.199815,-9.440824
22.430243,2.205288,3.165098,-10.257425,2.205288,3.165098,-10.257425
22.463601,1.012933,1.092543,-9.054446,1.012933,1.092543,-9.054446
22.496927,2.058937,3.13068,-10.592177,2.058937,3.13068,-10.592177
22.530255,2.364508,9.119092,-12.52706,2.364508,9.119092,-12.52706
22.56359,2.477489,4.686667,-8.595341,2.477489,4.686667,-8.595341
22.596927,-0.726517,-1.135191,-20.961535,-0.726517,-1.135191,-20.961535
22.630246,6.383768,8.701288,-26.559827,6.383768,8.701288,-26.559827
22.663536,5.406749,-3.15148,-3.971225,5.406749,-3.15148,-3.971225
22.696908,4.942557,-1.398264,-4.520863,4.942557,-1.398264,-4.520863
22.730251,4.875218,3.483239,-8.879214,4.875218,3.483239,-8.879214
22.76356,5.779061,6.372844,-7.768414,5.779061,6.372844,-7.768414
22.796927,3.868869,11.023148,-7.920751,3.868869,11.023148,-7.920751
22.830257,0.0838,14.085891,-8.814718,0.0838,14.085891,-8.814718
22.863595,1.122023,21.577615,-5.788638,1.122023,21.577615,-5.788638
22.896933,-3.380883,34.148969,31.373392,-3.380883,34.148969,31.373392
22.930257,-7.080805,19.035331,-28.551575,-7.080805,19.035331,-28.551575
22.963529,0.569541,-13.192971,-12.992001,0.569541,-13.192971,-12.992001
22.996945,0.893817,4.038265,-9.245689,0.893817,4.038265,-9.245689
23.030207,1.641284,3.957757,-9.841867,1.641284,3.957757,-9.841867
23.063632,1.813972,2.503078,-9.221597,1.813972,2.503078,-9.221597
23.096788,1.405297,2.920282,-9.632217,1.405297,2.920282,-9.632217
23.130247,0.892321,2.997348,-8.037772,0.892321,2.997348,-8.037772
23.163803,1.438069,3.320128,-8.88101,1.438069,3.320128,-8.88101
23.196715,1.424601,2.65721,-9.536446,1.424601,2.65721,-9.536446
23.23026,1.281093,2.681302,-9.502776,1.281093,2.681302,-9.502776
23.263501,1.155244,2.645238,-9.435736,1.155244,2.645238,-9.435736
23.296909,1.489247,2.953054,-9.388748,1.489247,2.953054,-9.388748
23.330261,1.252661,3.047928,-9.433641,1.252661,3.047928,-9.433641
23.363612,1.289324,2.897387,-9.42152,1.289324,2.897387,-9.42152
23.396912,1.396767,2.683846,-9.221447,1.396767,2.683846,-9.221447
23.430248,1.310872,3.100003,-10.166443,1.310872,3.100003,-10.166443
23.463556,1.404549,2.576552,-9.446211,1.404549,2.576552,-9.446211
23.496911,1.55479,2.927615,-9.333081,1.55479,2.927615,-9.333081
23.530246,1.425499,2.983731,-9.469106,1.425499,2.983731,-9.469106
23.563609,1.297853,2.896938,-9.382164,1.297853,2.896938,-9.382164
23.596911,1.415922,2.674119,-9.252573,1.415922,2.674119,-9.252573
23.630249,1.4038,2.80386,-9.294024,1.4038,2.80386,-9.294024
23.663586,1.324789,2.956346,-8.782694,1.324789,2.956346,-8.782694
23.696691,1.209414,2.859826,-8.913931,1.209414,2.859826,-8.913931
23.730211,1.259844,2.865064,-9.457135,1.259844,2.865064,-9.457135
23.763562,1.390782,2.714673,-9.315573,1.390782,2.714673,-9.315573
23.796929,1.407093,2.90023,-10.181257,1.407093,2.90023,-10.181257
23.830259,1.39557,2.696267,-9.362411,1.39557,2.696267,-9.362411
23.8636,1.366689,2.675317,-9.142137,1.366689,2.675317,-9.142137
23.896925,1.463059,2.726943,-9.303003,1.463059,2.726943,-9.303003
23.93021,1.482363,2.740411,-9.317967,1.482363,2.740411,-9.317967
23.963593,1.322844,2.681003,-9.265742,1.322844,2.681003,-9.265742
23.99693,1.294561,2.867159,-9.486914,1.294561,2.867159,-9.486914
24.030192,1.407841,2.753131,-9.374233,1.407841,2.753131,-9.374233
24.063581,1.369233,2.771687,-9.390394,1.369233,2.771687,-9.390394
24.096926,1.374919,2.672024,-9.22878,1.374919,2.672024,-9.22878
24.130245,1.407093,2.705096,-9.614709,1.407093,2.705096,-9.614709
24.163626,1.411881,2.704198,-9.728587,1.411881,2.704198,-9.728587
24.196606,1.254606,2.798922,-9.426458,1.254606,2.798922,-9.426458
24.230243,1.282141,2.736521,-9.359867,1.282141,2.736521,-9.359867
24.262755,1.294112,2.82062,-9.417031,1.294112,2.82062,-9.417031
24.296937,1.30773,2.714972,-9.333829,1.30773,2.714972,-9.333829
24.330245,1.317905,2.782162,-9.401917,1.317905,2.782162,-9.401917
24.363589,1.333618,2.805057,-9.393537,1.333618,2.805057,-9.393537
24.396926,1.329129,2.788447,-9.366751,1.329129,2.788447,-9.366751
24.430293,1.322095,2.814634,-9.387551,1.322095,2.814634,-9.387551
24.463613,1.361302,2.810743,-8.837314,1.361302,2.810743,-8.837314
24.496954,1.284535,2.789793,-9.637455,1.284535,2.789793,-9.637455
24.530353,1.362948,2.797575,-9.478085,1.362948,2.797575,-9.478085
24.563622,1.393774,2.865662,-9.283399,1.393774,2.865662,-9.283399