time_tick,acc_X_value,acc_Y_value,acc_Z_value,acc_A_value,acc_B_value,acc_C_value
0.01545,0.156826,3.320577,-9.193314,-0.218329,3.527084,-9.194063
0.043963,0.413015,3.402731,-9.148571,-0.17598,3.366667,-9.275917
0.076963,0.256638,3.487878,-9.298214,-0.069883,3.456602,-9.183288
0.110801,0.257685,3.48698,-9.223991,-0.231797,3.335092,-9.238806
0.144608,0.351362,3.371007,-9.163236,-0.130938,3.531424,-9.289236
0.176875,0.353606,3.462887,-9.16159,-0.162512,3.47875,-9.256464
0.210774,0.275343,3.302021,-9.102631,-0.092479,3.418294,-9.288338
0.244084,0.261726,3.448073,-9.134505,-0.129591,3.410662,-9.282352
0.276596,0.221023,3.349458,-9.135103,-0.073924,3.31519,-9.257062
0.310693,0.170892,3.337337,-9.204987,-0.130938,3.500897,-9.238058
0.343668,0.350913,3.496707,-9.19526,-0.066591,3.40737,-9.256464
0.376921,0.22192,3.392256,-9.229678,-0.123455,3.396296,-9.254967
0.410748,0.276091,3.391657,-9.148122,-0.193638,3.502094,-9.291929
0.444011,0.22207,3.350057,-9.129567,-0.401791,3.238124,-9.240302
0.477302,0.28911,3.345118,-9.152911,-0.228505,3.433258,-9.225488
0.510395,0.271303,3.415151,-9.172215,-0.098615,3.576466,-9.318715
0.543673,0.291355,3.57063,-9.240302,0.09637,3.337337,-9.322157
0.578172,0.38982,3.383128,-9.131213,-0.023344,3.525438,-9.264395
0.609803,0.421245,3.277181,-9.14049,-0.669951,3.201611,-9.086619
0.643383,0.156377,3.266556,-9.21621,-0.286566,3.330004,-9.305098
0.677805,0.380093,3.338085,-9.200198,-0.038458,3.311,-9.239105
0.70994,0.363483,3.535464,-9.101733,-0.402839,3.223908,-9.285195
0.743891,0.350164,3.559407,-9.129866,0.127945,4.036918,-9.42167
0.777688,0.017209,3.34467,-9.156652,-0.100859,3.529927,-9.306295
0.809941,0.478708,3.444182,-9.053997,-0.368271,3.652934,-9.322307
0.844354,0.399547,3.710098,-9.051603,-0.031126,3.589336,-9.296718
0.876417,0.173436,3.392555,-9.103379,-0.267861,3.431313,-9.247485
0.90994,0.440848,3.425327,-9.071954,0.026188,3.631984,-9.342808
0.944202,0.238232,3.487728,-9.096944,-0.039805,3.291696,-9.226236
0.976999,0.437556,3.252789,-9.184186,-0.146052,3.329256,-9.197504
1.009825,0.270106,3.386719,-9.235065,-0.251101,3.299328,-9.183737
1.043283,0.288961,3.555067,-9.150367,-0.294497,3.089379,-9.234317
1.076088,0.433216,3.57916,-9.256314,-0.24317,3.365769,-9.302105
1.110229,0.392663,3.563896,-9.22459,-0.288212,3.698276,-9.279808
1.144127,0.646009,3.593526,-9.125676,0.209051,3.591281,-9.315872
1.177567,0.541707,3.38238,-9.037686,-0.613386,3.203107,-9.256613
1.209793,0.741481,3.585295,-9.098441,-0.038608,3.685406,-9.373185
1.242809,0.19708,3.425327,-9.211421,-0.33116,3.200863,-9.083327
1.276187,0.421544,3.345717,-9.088115,-0.370815,3.238573,-9.00237
1.310655,0.088289,3.618366,-9.107868,0.169994,3.422933,-9.461175
1.34375,0.078712,3.315938,-9.083925,-0.248258,3.517657,-9.366302
1.376946,0.272201,3.710247,-9.407154,-0.73355,3.34886,-9.171766
1.410674,0.580166,3.014856,-8.937874,0.187054,3.155072,-9.00252
1.443757,0.545299,3.513467,-9.110263,-0.291953,3.073217,-9.826154
1.477181,-0.282526,3.323271,-9.483472,-0.628351,3.791952,-8.807834
1.510918,0.428577,3.153875,-8.761744,-0.344927,3.697228,-9.891698
1.543333,1.161379,3.192183,-9.290732,0.272649,4.194342,-9.235065
1.577556,0.675488,4.268565,-9.242846,0.043845,4.656589,-9.646284
1.610591,0.305721,4.175786,-9.066268,-0.015713,3.651737,-9.384708
1.643985,0.68327,4.184915,-8.636942,0.176728,4.261981,-8.948948
1.676908,0.82962,4.157829,-8.417865,0.025888,4.663473,-8.862005
1.710697,1.226025,4.897814,-7.98794,0.577023,4.941809,-9.582985
1.743765,1.387489,4.648808,-7.695987,1.080422,3.152827,-8.673754
1.777071,-1.083415,4.686219,-8.743188,0.843088,3.785967,-12.039673
1.810779,0.262474,2.345204,-8.475477,-0.408076,-0.216084,-7.222517
1.843991,1.494933,2.086921,-12.641088,-0.755248,6.46697,-7.881844
1.87699,-0.597973,4.462203,-12.447899,2.528218,1.73496,-7.644061
1.910389,0.283573,2.919833,-8.862753,-1.700842,3.877847,-9.649127
1.943723,0.402988,3.606844,-8.953437,0.745222,3.318482,-9.247036
1.977447,1.689619,3.584248,-9.629224,0.15922,3.477104,-9.17835
2.010461,-0.69569,3.447624,-9.560987,0.096969,3.928127,-9.431995
2.044092,0.186455,3.203706,-8.711763,0.653042,4.528644,-9.066717
2.077467,0.647056,5.012291,-7.937212,0.354654,5.33507,-8.832525
2.110335,2.118944,5.089357,-7.169543,0.154132,4.609152,-7.499356
2.144039,1.0059,4.876864,-7.567743,-2.763307,2.563384,-9.231473
2.177445,0.639574,1.216747,-8.716851,0.759737,2.239407,-8.157486
2.210282,-0.221472,4.843643,-10.022486,-0.078862,2.758668,-9.836779
2.244458,1.50885,0.677434,-10.537856,1.256552,1.437919,-8.821901
2.276831,0.104301,4.808028,-9.974301,2.587327,5.38954,-8.753364
2.310563,-0.933323,4.533283,-10.122298,2.61082,3.662511,-9.586277
2.344331,-1.188315,3.8557,-9.429301,-4.910384,2.981037,-8.874874
2.376951,2.9336,0.742079,-7.843385,-3.283914,0.595878,-5.614005
2.410131,3.286309,0.114926,-7.630144,1.068151,3.06349,-9.44262
2.443981,0.062551,2.646436,-9.884066,0.414062,3.674483,-9.997196
2.476603,0.152935,2.066569,-9.215911,1.146115,4.932531,-11.196585
2.510961,-0.445487,3.412009,-9.50547,-0.623712,3.128585,-9.097244
2.543486,0.259331,2.708837,-9.412092,-0.257536,2.953054,-8.561672
2.577026,0.333554,2.245542,-9.097842,-0.562657,3.384026,-10.059597
2.610762,0.321583,1.983218,-8.735856,-0.001646,4.109944,-9.45489
2.643858,-0.550237,4.538521,-9.197654,-0.454166,3.812753,-9.012995
2.677189,1.122771,3.452712,-9.004016,-0.43576,3.575718,-9.242098
2.710629,0.058211,3.198019,-9.103678,-0.216234,3.475457,-9.156502
2.74221,0.62446,3.372353,-9.097543,-0.447432,3.435503,-9.33757
2.778618,0.306319,3.262665,-9.228032,-0.220723,3.593975,-9.401468
2.809938,0.106246,3.28586,-9.233419,-0.378746,3.524391,-9.014641
2.843934,-0.059558,3.09312,-9.322756,-0.437556,3.506434,-9.529263
2.877647,0.247809,3.124694,-9.238656,-0.161764,3.817541,-10.608787
2.910276,0.396105,3.375496,-9.250628,-1.264483,4.040958,-9.235813
2.944162,0.235239,3.156718,-9.253621,-1.269571,2.592414,-8.839708
2.977137,0.254842,3.218969,-9.343107,0.09637,3.760228,-9.733525
3.010283,0.262474,3.166744,-9.24539,0.29345,2.659305,-8.961817
3.044934,0.521057,3.108982,-9.49275,-0.423041,3.438196,-9.607526
3.077096,1.158536,2.221898,-10.123645,-0.205609,2.826606,-9.189424
3.11055,1.24069,-2.858629,-11.623067,-0.10041,2.941681,-9.197654
3.144187,2.548419,-5.505214,-12.876626,-0.407627,2.259608,-8.118878
3.176952,8.250564,-3.361878,-14.84892,-0.293899,4.11982,-13.069366
3.210828,6.304906,-4.418507,-10.885178,-0.405532,3.159711,-9.503375
3.244404,3.310551,-2.341164,-9.971757,-1.01832,3.16854,-9.017185
3.276958,2.656312,-0.145902,-10.623901,-0.920753,3.688848,-9.537643
3.310348,0.047287,2.303304,-11.209753,-0.7964,3.354546,-9.36286
3.344136,-0.887532,2.180597,-9.370641,-0.780837,3.413954,-9.320511
3.376934,-0.860297,1.492539,-7.163408,-0.864787,3.338085,-9.360615
3.410576,-0.130489,4.662575,-8.207018,-0.500705,3.664606,-9.560239
3.444118,1.102869,7.588244,-7.988689,-0.435461,3.647248,-9.368995
3.47774,0.728013,10.79195,-7.660522,-0.368421,3.493564,-9.122234
3.509419,0.947988,14.224161,-4.641176,-0.49891,3.789408,-9.723799
3.54393,-5.102824,19.323843,12.967908,-0.491427,2.513403,-8.979325
3.579298,8.437169,20.991164,-53.29339,-0.43187,1.798858,-9.943923
3.610099,1.501517,-15.651605,-7.412114,-1.893582,3.608789,-12.584224
3.644533,1.398862,6.421478,-8.524111,-0.260229,7.629845,-10.436548
3.675994,-0.807473,2.941681,-9.207979,-1.114391,4.251057,-22.429383
3.712175,0.078712,2.315276,-9.460128,-7.172835,9.644787,-40.329822
3.74311,0.449677,3.504488,-9.453544,-2.861622,-2.880627,-14.405378
3.776413,1.113493,3.43251,-9.025714,-4.124609,-2.563084,-8.769376
3.809942,0.990187,3.380584,-9.113854,-4.276047,0.547394,-11.865339
3.843499,0.285968,3.218072,-9.244193,-3.219867,2.149022,-12.919873
3.877174,0.181966,2.903372,-9.064921,-1.911689,3.882037,-10.505234
3.910553,0.261426,3.174077,-9.015688,0.751657,6.326006,-12.403305
3.943986,0.597075,3.765017,-9.18673,1.642631,7.251099,-11.015217
3.976604,0.776797,3.730748,-9.094101,5.728182,0.523152,-11.631597
4.011085,0.229253,3.300525,-9.167426,16.155752,30.374076,-16.758214
4.044064,0.076318,3.498652,-9.225937,10.220613,34.994751,20.151518
4.077094,0.326671,3.937705,-9.912947,-5.316515,54.78533,-12.643333
4.111104,0.781286,3.639466,-10.496705,-7.037558,-15.502111,3.587091
4.143619,0.763329,-0.088888,-12.783997,4.394564,0.407927,-10.358883
4.176602,3.664008,-2.64449,-13.127727,1.081619,12.219993,-17.629735
4.210613,-3.591131,7.85416,-14.66456,-0.947838,3.606994,-7.686709
4.243594,3.766812,-0.475116,-19.261591,-0.655735,3.747808,-8.296804
4.277077,21.544095,7.813008,-29.388229,-0.587648,3.316836,-9.230725
4.310593,10.096559,-7.440247,-12.221489,-0.809419,3.552075,-9.360166
4.343393,4.730812,-5.937383,-10.349157,-0.435162,3.16854,-9.267238
4.376718,2.402966,-1.765936,-7.968786,-0.510731,3.645003,-8.990698
4.410105,1.717602,1.007097,-10.956707,-0.672795,3.592628,-9.226685
4.444089,2.143785,5.163879,-15.743336,-0.298687,4.458761,-9.370043
4.477545,0.530634,5.395376,-14.186151,-0.490829,3.894757,-9.33772
4.510037,2.973106,3.035956,-8.553292,-0.750609,3.716832,-9.11984
4.544282,-2.995852,37.402955,-11.832268,-0.638227,3.590683,-8.785986
4.576861,-0.724571,38.969867,-1.053486,-0.37321,2.409401,-9.083925
4.610718,-14.004934,44.273213,36.357101,-0.956218,5.206826,-11.768221
4.643462,-9.979538,42.684902,-18.070433,-1.845247,4.995381,-10.768755
4.676504,-2.523579,-8.227968,-16.54647,-1.443905,3.775791,-12.745539
4.71011,0.438903,9.379021,-12.192907,-3.253836,20.327498,-51.872381
4.743707,0.189149,3.186647,-9.028258,-7.317839,10.9594,-32.847674
4.77678,1.649365,3.501645,-8.606116,-5.548312,-12.113746,-7.486487
4.80992,0.119565,3.54983,-9.144531,-4.999421,-0.913271,-10.501343
4.844738,0.41077,3.452113,-9.17431,-2.574008,3.513467,-13.793039
4.876801,0.185408,3.377142,-9.171616,1.138783,4.914125,-12.13739
4.910027,0.479007,3.205202,-9.230127,3.459745,7.024689,-12.785793
4.943608,0.39805,3.372503,-9.083776,2.69073,10.968529,-11.195986
4.977029,0.302877,3.335691,-9.230127,2.821667,2.431099,-21.346566
5.010001,0.476613,3.471417,-9.187628,9.260504,21.691044,-10.897299
5.043344,0.338941,3.783123,-9.419874,5.512697,31.05151,-4.712556
5.076719,0.502501,4.129397,-9.783806,-1.063063,30.575945,14.202014
5.109797,1.214053,4.053827,-9.954698,7.096517,45.148624,41.82685
5.143317,0.355552,1.237398,-12.288978,-10.844475,29.864243,-0.620569
5.176943,3.775641,0.752105,-13.822968,17.161801,13.694425,-12.984219
5.210515,-2.550814,3.871113,-9.842017,-3.492816,3.581554,-6.782118
5.243488,8.268371,3.874705,-13.068468,-1.448095,5.327139,-9.92866
5.277522,2.988819,13.949117,-31.004522,-0.684168,3.608939,-8.907347
5.30991,19.166568,5.626276,-21.258576,-0.798944,4.636387,-10.897598
5.343438,8.435971,-1.781499,-9.142436,-1.126512,3.948628,-9.352235
5.377258,4.860403,-1.224678,-4.739192,-0.858502,3.527832,-9.136151
5.410152,5.70828,-0.681175,-6.03495,-0.634336,4.016716,-9.091857
5.443727,4.955127,5.07948,-11.779743,-0.841742,3.663259,-8.699193
5.477258,1.780751,7.334749,-13.948219,-1.114541,3.873957,-9.097393
5.510013,1.535786,6.966927,-11.958566,-0.854012,3.841035,-8.658939
5.543632,-0.580465,5.781006,-11.964253,-0.487686,3.783123,-9.50966
5.577601,5.258453,34.584131,-23.535094,-0.466736,4.177133,-9.092006
5.609337,-6.830901,27.456039,-2.993009,-0.835307,4.160523,-9.665438
5.643648,-1.191457,28.72965,5.428448,-0.874513,2.662298,-9.092006
5.676775,-12.005854,31.217464,35.81674,0.687759,2.006712,-9.698659
5.710881,10.154321,32.7112,-53.909021,-0.881098,2.845461,-11.337698
5.743506,1.588759,-2.861323,-9.261402,2.655713,6.065328,-15.679588
5.776314,-1.170806,2.588224,-17.202205,0.388024,3.355893,-12.968956
5.809843,0.717987,4.282631,-7.993477,-4.098421,18.167851,-45.509712
5.843533,1.068451,4.276646,-7.890972,-2.43918,6.372695,-18.7549
5.876855,0.901,3.310701,-8.697697,-6.829854,-3.50808,-9.776623
5.911604,1.207619,3.347812,-8.847639,-10.810356,-0.499059,-6.52114
5.943952,0.99752,3.342575,-9.056092,-6.141347,5.406001,-14.504292
5.976589,1.259395,3.51197,-9.068213,-4.042754,6.847661,-7.974772
6.009441,1.053486,3.519901,-9.059234,-0.173735,10.194276,-15.212403
6.043947,1.30354,3.584248,-8.949247,-2.863119,10.853004,-8.805889
6.076671,1.215699,3.618516,-8.923957,-1.797661,6.138803,-14.259327
6.109589,0.965945,3.615972,-9.372736,11.625611,26.473034,-16.03095
6.14334,2.315126,5.32684,-9.95784,2.984928,25.989239,0.286566
6.176471,1.821604,4.024647,-9.852492,-4.901255,31.817083,4.277544
6.209484,0.407927,3.03027,-9.616056,-5.436678,32.044541,30.764644
6.243575,-0.195583,2.114305,-10.470966,-4.997625,13.212275,-65.010882
6.276356,1.425199,0.144705,-11.318394,21.219669,-1.241438,-24.350649
6.310555,-3.699174,1.200585,-14.856851,-4.491832,4.84499,-10.098954
6.343566,0.910128,-0.345226,-12.902813,-0.718885,2.08722,-7.210695
6.377453,-6.081489,4.639231,-26.030989,-2.116999,3.723715,-12.006452
6.409953,8.322392,15.782692,-19.459419,-1.000363,2.859976,-8.691412
6.443568,18.378548,3.04673,-14.70212,-0.684317,3.205352,-9.166229
6.477079,19.237499,1.78973,-3.740176,-0.617576,3.367266,-10.047476
6.509817,7.289856,-1.577835,-2.467911,-1.449891,3.179763,-9.229678
6.543629,-2.240305,3.548633,-11.871474,-1.270469,3.867223,-9.32111
6.576952,-0.181667,9.451748,-14.832609,-1.343943,3.334494,-9.034394
6.610061,-1.539826,5.971053,-12.358712,-1.145816,2.996899,-9.113106
6.643625,4.763584,5.298557,-17.224352,-0.640023,3.722817,-9.872693
6.676567,-2.001025,32.257632,-20.320764,-1.199388,3.301273,-8.931589
6.709934,-4.739641,28.625648,-7.721576,-1.03523,4.317498,-9.744749
6.743798,-5.540979,31.170177,1.596092,-1.710269,4.333959,-9.517142
6.776587,-7.452668,26.655599,15.881456,-0.131387,1.060669,-8.245326
6.810175,-3.943391,-19.388937,-20.123684,0.805827,3.280323,-11.411921
6.844072,5.859719,8.052736,-16.467308,-8.974686,14.53871,-13.896892
6.876578,-1.789131,-1.214053,-7.436656,-1.076382,1.75202,-12.50596
6.910255,-5.589014,5.083969,-11.903797,2.913698,22.586059,-65.527749
6.943668,-0.528838,3.613728,-10.041491,-5.83832,17.395843,-34.19476
6.976714,1.16108,2.660801,-7.940953,-2.394287,-3.160609,-4.508443
7.010116,1.740347,4.780793,-9.0109,-5.877676,-5.3855,-8.230661
7.043454,0.145902,3.142801,-9.377525,-5.870343,4.337401,-7.386226
7.076661,0.377549,3.472914,-9.075994,-3.50389,5.585124,-13.404417
7.110113,0.63269,2.990165,-8.881159,-0.069584,7.517912,-11.86923
7.143984,-0.528389,4.021654,-9.278162,0.568045,12.292869,-15.108401
7.176674,0.314101,3.602355,-8.843898,1.008145,5.353027,-15.352768
7.210117,0.172239,3.643806,-9.142735,10.348109,27.209876,-11.13553
7.243129,0.17164,3.613129,-9.254219,7.940504,30.300901,8.334663
7.275871,0.144256,4.109644,-9.984926,-2.110115,48.007552,24.964334
7.309696,0.195733,4.309717,-10.415448,19.778608,4.452776,-80.023661
7.343591,0.229103,5.271921,-11.861448,5.331778,-9.60154,-19.588711
7.376521,1.492988,-5.202936,-14.021694,1.046303,-0.112831,-8.175293
7.410726,0.635234,9.694618,-16.009551,-0.197828,10.043137,0.180918
7.444614,1.62602,0.363483,-11.786178,-1.484757,0.6915,-11.930733
7.477277,9.187778,12.77427,-32.888826,-0.450575,4.795907,-13.330194
7.512806,22.023102,-0.852217,-16.758514,-0.70826,3.626597,-10.400634
7.543406,10.55312,-1.257001,-9.458931,-1.015327,3.782375,-11.008034
7.576861,9.947964,-1.358159,-3.347363,-1.253858,3.939351,-9.511605
7.61195,4.641924,0.269058,-6.52114,-0.487686,3.757235,-9.443966
7.643911,4.275598,6.074007,-10.71668,-0.726367,3.651737,-9.301506
7.676574,3.410063,6.615116,-13.025371,-0.905789,3.757534,-9.199749
7.712199,3.526037,6.947024,-12.029796,-0.888281,3.337038,-9.106671
7.743772,4.89078,13.375386,-15.511838,-0.641519,4.390674,-9.293575
7.776716,-6.909613,34.417728,-11.955125,-0.622365,3.825921,-9.09874
7.810755,-4.261532,35.370056,-3.249497,-0.667707,3.163901,-9.028558
7.842936,-10.622554,37.397718,39.131481,0.6285,1.009491,-9.138844
7.877791,7.549038,18.130291,-64.936958,0.167151,3.49955,-11.603015
7.909817,0.375005,-5.582879,-12.638245,2.289836,4.273952,-12.878721
7.943328,-0.615182,5.512846,-6.524283,0.094425,3.306361,-9.64344
7.976951,0.330861,5.298408,-8.507501,-4.495274,15.995335,-55.261045
8.010159,1.793471,2.581191,-8.28154,-2.606481,-0.351212,-11.272304
8.043836,0.830967,3.604001,-8.733761,-7.380689,-5.761104,-10.274335
8.077165,0.350913,3.324617,-9.130165,-7.56056,2.284449,-10.794793
8.111123,0.764675,3.425926,-8.959722,-2.476142,2.990614,-11.342038
8.143062,0.610843,3.453011,-9.059085,2.266791,4.775555,-11.341439
8.177117,0.480504,3.594723,-9.265742,3.169438,9.268286,-12.464958
8.211044,0.564603,3.591431,-9.168474,2.138697,8.123218,-6.472357
8.243711,0.605605,3.586792,-9.08632,1.519923,10.853753,-24.732687
8.276772,0.37321,3.73419,-9.284597,7.136322,20.308942,-6.436742
8.311247,0.401342,3.678074,-9.370192,4.541813,23.457579,-1.838214
8.343755,0.24317,4.816857,-9.742504,3.078455,32.549436,6.206142
8.376821,1.625721,4.78214,-10.306508,14.574774,42.946478,28.643755
8.409911,0.496216,2.77019,-10.982894,-11.469982,12.707679,-5.398369
8.443335,2.956645,-0.123755,-14.049527,6.698617,7.394756,-9.997047
8.479415,-5.700947,25.337095,-19.085312,-2.290884,3.357988,-3.433557
8.510141,3.297981,2.161892,-12.245582,-2.593312,12.045509,-4.213945
8.549118,5.805099,19.058526,-40.893676,-1.441511,4.128649,-11.631148
8.576814,26.33656,6.19417,-17.313539,-0.5239,3.376244,-10.021588
8.609868,12.936184,1.20687,-11.281731,-0.65798,3.70501,-8.974237
8.644053,9.805204,-0.097118,-2.205138,-0.675937,3.482042,-9.099638
8.676572,5.295565,-1.217046,-8.925154,-0.749412,3.534716,-9.420622
8.710048,2.096947,5.567466,-9.246438,-0.655436,3.388515,-9.238058
8.745476,1.076531,7.596325,-14.709752,-0.636282,3.635725,-9.156652
8.777443,2.33458,8.695153,-11.637582,-0.751806,3.418443,-8.78883
8.809965,-0.987643,5.337914,-14.348664,-0.596177,4.314805,-9.628925
8.844933,-1.473983,25.076866,-27.654615,-0.614284,3.693038,-9.348494
8.877798,-7.095919,28.908024,-6.240261,-0.523002,4.247914,-9.67696
8.91018,-1.989802,29.435366,-2.296421,-0.69569,3.267154,-8.790925
8.944112,-12.263389,35.595568,15.508546,1.048548,2.106224,-9.231174
8.977216,-2.382016,-10.572573,-50.114226,-0.245265,1.339454,-11.013422
9.009946,10.802874,-1.01847,-14.449074,-4.778099,6.882977,-8.59175
9.0453,-2.978194,2.42227,-11.356852,-0.976869,3.346765,-10.082942
9.07656,-4.563212,5.510751,-10.556562,4.496322,0.73325,-18.708511
9.109903,2.232373,4.162319,-10.608637,-4.356405,13.932806,-33.410332
9.144888,1.262388,4.310914,-10.05032,-2.588973,0.617576,-10.530973
9.178779,1.19849,3.736435,-9.319164,-2.247936,-3.857197,-9.990911
9.209948,0.370666,3.234981,-9.014491,-9.603186,6.280066,-13.58309
9.243425,0.156227,3.179015,-9.298214,-4.609751,6.379578,-11.103207
9.276091,0.74612,3.514514,-9.016736,-1.800504,6.520242,-9.35882
9.309814,0.504895,3.395249,-9.151564,0.520309,10.442234,-9.171915
9.343534,0.477062,3.920196,-9.278312,0.910877,11.36628,-18.036614
9.37625,0.489632,3.510324,-8.946104,2.962481,14.762726,-13.551516
9.409926,0.392364,3.531873,-9.06956,5.564922,23.24374,-1.984415
9.44526,0.641819,3.63797,-9.373784,-2.146628,26.593347,-1.612253
9.475646,-0.01257,4.66048,-9.902622,-4.971737,34.849298,-0.111484
9.50995,0.461798,4.70672,-10.183203,15.107653,1.383599,-25.166352
9.543705,0.115375,2.565479,-12.06601,7.751505,22.845091,9.33368
9.576334,-0.383984,-3.942044,-12.960725,1.829984,5.200691,-1.424601
9.611535,15.436867,18.573982,-22.408732,0.189897,7.551582,-20.305051
9.644149,-3.973918,-1.673457,-10.820083,-1.089101,1.03508,-9.725894
9.676755,5.653211,17.786561,-38.713528,-0.473919,3.029821,-10.220464
9.713773,27.348745,4.821645,-14.519556,-0.462546,3.43655,-8.856169
9.742855,12.902215,1.411881,-13.827607,-0.588097,3.52484,-9.569966
9.776585,9.43005,-1.645773,0.768865,-0.502052,3.475757,-9.56398
9.811607,1.665975,-2.765851,-5.633309,-0.710205,3.376693,-9.472249
9.843577,2.997498,3.778933,-9.682946,-0.687609,3.465431,-9.027061
9.876651,0.707063,7.079907,-11.92355,-0.411817,3.274936,-8.749324
9.911799,2.297767,5.581981,-12.224183,-0.612339,3.68391,-9.276516
9.943664,3.293342,6.413697,-14.278032,-1.018919,3.324168,-9.128818
9.976886,-2.533156,31.779673,-22.934128,-0.618325,3.895056,-9.625334
10.010177,-14.3126,33.634198,2.614412,-0.478857,4.124459,-9.633863
10.043119,-14.170439,40.564761,14.131981,-0.541109,4.225618,-9.745048
10.076458,16.870596,8.685277,-65.680833,-1.043909,-0.326521,-7.36797
10.110224,0.76273,-4.347577,-15.094334,-1.095536,6.041235,-13.053055
10.145421,-3.677775,2.778121,-18.09692,-5.09205,15.630355,-16.296117
10.176417,-2.961883,7.199023,-2.826306,2.935845,6.24041,-13.114708
10.209934,0.397751,2.524925,-6.34516,-7.805675,14.470323,-45.584234
10.243624,0.545598,3.238273,-8.791972,-7.873314,8.347682,-25.711801
10.276865,0.709756,3.610585,-9.27891,-0.622664,-4.39651,-7.617873
10.310268,0.476613,3.476505,-9.1574,-2.15426,-5.789087,-7.832162
10.343357,0.451024,3.223309,-9.121635,-3.555816,1.615396,-12.806144
10.377623,0.576125,3.540253,-9.307043,-1.206122,6.220957,-13.18085
10.410739,0.488435,3.444182,-9.21606,1.418914,5.294218,-10.36023
10.443839,0.447432,3.553571,-9.173711,2.684594,9.475242,-10.874254
10.477957,0.36902,3.279276,-9.211122,-0.694343,0.847578,-15.324036
10.509807,-0.263671,3.818439,-9.470752,3.533519,25.076417,-16.804753
10.543209,0.241224,3.285112,-9.565177,3.575269,26.16043,-3.505685
10.576838,0.31844,4.087347,-9.879128,-8.939071,30.253165,12.417222
10.609999,1.201334,4.120867,-10.275532,11.347125,36.68422,24.856591
10.643757,-0.554577,-0.539612,-11.451277,6.058893,11.44589,-15.597883
10.677244,3.930971,0.947539,-12.706632,6.421179,-0.094125,-10.101797
10.711772,-1.067253,1.590106,-14.608144,-2.769143,7.101156,-15.923656
10.743972,-0.384732,-1.217794,-12.107312,-0.58256,1.920368,-8.863352
10.777535,2.875988,20.090763,-38.921382,-0.675039,4.078369,-10.821579
10.810074,19.015728,10.728202,-12.092796,-0.301381,3.280772,-9.203939
10.844144,15.076377,0.977468,-7.657679,-0.425734,3.435353,-9.276815
10.878681,10.536659,1.656847,-1.04765,-0.559365,3.697079,-9.472099
10.909706,4.181323,-0.995874,-5.418571,-0.476014,3.422334,-9.327544
10.943463,1.235602,3.875603,-9.582835,-0.558019,3.351703,-9.116997
10.978156,-0.059558,7.442941,-12.82051,-0.676685,3.600559,-9.287141
11.009735,0.578669,6.058295,-13.362367,-0.443991,3.575269,-9.3461
11.043679,4.259437,9.329938,-19.24109,-0.693296,3.387318,-9.005064
11.080124,-4.894671,24.86153,-22.897167,-0.36064,4.439308,-10.095961
11.110552,-7.811511,34.853039,-2.587775,-0.495318,3.657723,-9.343406
11.143112,-8.133244,37.651213,3.96898,-0.068985,4.783935,-9.965771
11.176609,0.556073,2.918337,-43.378048,-0.388922,-4.099169,-3.929474
11.209905,-5.034288,11.543607,3.102248,0.968788,8.729571,-16.870746
11.244359,-1.760998,2.691628,-14.289854,-7.150539,18.111735,-15.05423
11.277383,0.237034,5.54038,-17.335986,2.789195,4.885393,-11.831819
11.310017,2.507567,3.209991,-11.975626,-1.002907,15.445397,-48.90107
11.344532,1.303839,3.824275,-10.271193,-2.961135,8.739447,-16.903817
11.377612,0.627453,3.430565,-8.913482,-1.517679,-2.45609,-10.338532
11.409946,0.535871,3.460942,-9.169222,-2.24659,-3.076509,-6.156909
11.444904,0.623113,3.435203,-9.205286,-5.024561,3.587241,-11.818351
11.476556,0.655735,3.446576,-9.027809,-0.179572,5.548461,-13.875343
11.509946,0.742079,3.612381,-9.049956,0.251849,7.24212,-13.669584
11.545042,0.596477,3.550728,-8.945506,1.105712,8.870684,-8.828784
11.576767,0.771709,3.387617,-8.918869,0.799393,7.067936,-12.712019
11.609981,0.357048,3.524091,-9.181792,2.572362,22.042855,-22.428036
11.645306,0.598273,3.558659,-9.241051,1.080871,21.250346,0.300184
11.676431,0.354803,3.991726,-9.713623,-1.712065,26.339852,3.77175
11.709797,0.591987,4.176235,-9.803259,0.257236,28.261268,15.042109
11.743873,1.660887,3.880242,-10.378936,-10.195024,3.310252,-57.061549
11.776462,1.213455,-0.274744,-12.173903,14.415105,2.728141,-19.730273
11.810558,4.309567,1.28259,-13.17681,1.773269,7.357495,-13.328398
11.843638,-9.187478,-0.584056,-15.786433,-1.404399,1.738252,-10.508227
11.878535,-1.613151,-1.003356,-11.004443,0.417953,6.434497,-11.994481
11.910186,9.513401,20.894046,-35.466127,0.893668,2.616507,-8.639187
11.943368,25.555125,1.411732,-14.975518,-0.081406,3.363375,-9.162488
11.9796,9.81538,0.391017,-3.660566,-0.42349,3.39046,-9.370192
12.009887,5.724591,-0.739984,-3.403479,-0.389521,3.251292,-8.791074
12.043475,1.091795,-0.148296,-8.545211,-0.47781,3.524241,-9.597799
12.0771,0.350314,5.191114,-11.077169,-0.664864,3.497156,-9.128968
12.110705,1.367138,8.337656,-14.380388,-0.367972,3.367715,-9.298962
12.144189,1.731668,6.104684,-13.112463,-0.428577,3.394052,-9.331136
12.177938,-6.523086,6.4544,-13.673624,-0.520608,3.393752,-9.279658
12.21088,-9.524175,28.86807,-11.495571,-0.450276,3.349159,-9.265742
12.243992,-1.272564,27.739313,-1.010539,-0.208004,4.56845,-9.951106
12.27754,-12.546963,32.444087,19.158487,-0.045043,4.097972,-9.638353
12.31028,7.321431,-0.383086,-57.639919,0.078413,3.968681,-10.003481
12.344025,0.024392,-3.601606,-13.179503,3.131578,10.511669,-20.30161
12.377011,-2.535849,4.416412,-10.461688,0.870024,12.099081,-12.744342
12.410012,-0.254692,3.930671,-12.396571,-0.221172,4.635041,-12.688375
12.445279,2.508165,2.930607,-9.665737,1.342896,13.620501,-40.534234
12.476556,1.293364,3.401983,-9.679205,-5.534245,21.460894,-24.475301
12.51007,1.101522,3.590383,-9.230725,-4.04036,-0.913271,-6.535656
12.547057,0.807922,3.304864,-9.156053,-4.851574,-4.301487,-9.743252
12.576425,0.799991,3.345118,-9.156951,-2.160246,-4.944053,-6.151373
12.609809,0.845333,3.395698,-9.165331,-0.851618,6.076701,-13.462777
12.642794,1.041216,3.396895,-9.041427,1.796314,6.841825,-12.113597
12.676388,0.940805,3.247252,-8.81786,2.838577,7.465986,-12.589012
12.709921,0.617726,3.891764,-9.248832,7.062549,8.362646,-10.104341
12.743327,0.894416,3.463636,-9.100685,6.585636,16.023168,-17.995462
12.776894,0.644363,3.472614,-9.177303,4.521911,17.957303,-9.159345
12.809808,0.786374,3.46184,-9.202892,-4.761339,20.511409,-6.360873
12.843903,0.687909,3.593526,-9.250628,-3.033263,22.968397,2.010453
12.876973,0.613386,3.713839,-9.190771,2.438731,27.680354,27.881923
12.910425,0.756744,4.179976,-9.709732,-1.536683,26.089051,-31.51256
12.945061,1.675851,4.689511,-10.966883,1.826542,15.498969,-13.797229
12.976558,4.659432,2.26739,-11.367776,0.606054,0.240776,-4.070139
13.010031,-0.978366,-2.2632,-11.695045,-1.98247,7.586299,-14.079755
13.043872,6.603145,12.617744,-15.01218,-0.026636,1.678545,-7.748362
13.077048,4.781541,4.8824,-18.95602,-1.283338,4.175487,-10.294986
13.112434,10.873505,6.113812,-16.140638,-0.489033,3.98993,-10.011712
13.143942,7.125997,-2.186732,-5.893388,-0.203664,2.96712,-8.544163
13.17675,6.636964,-1.428641,-4.447987,-0.682671,3.955961,-9.670975
13.210336,4.285924,-3.07621,-5.116741,-0.215037,3.565243,-9.290283
13.244334,3.650989,0.417803,-7.972976,-0.261426,3.579908,-9.352535
13.279557,3.543994,5.380861,-13.171722,-0.508337,3.329107,-9.134804
13.30987,2.649129,9.111609,-14.607696,-0.558617,3.474111,-9.125526
13.343695,-3.632732,15.838359,-13.164988,-0.207106,3.656525,-9.279808
13.376898,-12.801804,46.245956,-2.579695,-0.802685,3.530526,-9.335326
13.409877,3.526635,7.785025,-8.936976,0.217581,3.760527,-9.754775
13.443962,1.762944,1.522467,-9.426907,-0.059109,3.610585,-9.389496
13.476471,0.10475,3.379087,-11.05607,-0.608299,3.066783,-9.005064
13.510335,0.667856,2.943477,-9.454441,-0.342682,3.775791,-9.403862
13.545375,0.91791,2.792038,-9.098441,-0.603959,3.401833,-9.096944
13.577419,0.873616,2.986724,-9.158148,-0.317542,3.418443,-9.045617
13.61194,0.885737,3.163153,-9.141239,-0.512078,3.619863,-9.383361
13.645448,1.062914,2.867458,-9.214863,-0.447582,3.469322,-9.443667
13.677463,1.167065,2.933301,-8.601028,-0.578669,3.318931,-9.031251
13.710344,3.039996,4.5894,-7.974622,-0.66202,3.181858,-9.338019
13.745663,0.893817,6.605689,-9.419126,-0.717837,3.11796,-8.982916
13.776483,1.448095,2.344606,-8.466349,-0.536919,3.82233,-9.980586
13.810206,1.411732,1.309675,-8.783442,-0.59079,3.328957,-9.239853
13.845724,0.937214,4.739641,-10.231986,-0.646906,3.392705,-8.594144
13.876395,1.438368,3.858094,-8.97304,-0.563705,3.542198,-9.402815
13.909865,2.176706,2.639253,-8.512738,-0.587049,3.022638,-8.994439
13.943653,0.854761,5.073644,-8.848088,-0.422592,3.900144,-10.070671
13.9769,2.097695,3.455106,-8.392126,-0.638826,2.902624,-8.447494
14.010955,1.154795,3.727905,-8.950893,-0.572085,3.757385,-9.602139
14.044414,1.484308,3.470819,-9.076443,-0.357796,3.347962,-9.099638
14.078352,1.648317,2.990165,-8.403499,-0.510731,3.104044,-8.988453
14.111172,1.011586,3.859441,-9.167127,-0.735196,3.718178,-9.736518
14.144736,1.10646,3.990528,-9.094849,-0.652294,3.385372,-9.249281
14.179114,1.266279,3.438795,-8.875473,-0.572534,3.36547,-9.271578
14.209887,1.315212,3.775492,-9.101733,-0.648104,3.451215,-9.397876
14.243545,1.97828,3.113322,-8.557781,-0.434264,3.375047,-9.216808
14.278516,1.075334,4.532685,-9.464916,-0.478558,3.49536,-9.303152
14.310206,1.361302,3.334793,-8.437318,-0.526743,3.447325,-9.200497
14.344885,1.754564,3.553272,-8.87248,-0.505644,3.473362,-9.252573
14.379017,1.259545,3.546239,-9.033945,-0.589593,3.397793,-9.289834
14.409895,1.207619,3.47037,-9.297316,-0.501454,3.507182,-9.386204
14.443703,1.213155,3.158364,-8.571099,-0.646458,3.362178,-9.228929
14.47671,1.132498,3.372503,-8.903306,-0.572085,3.437598,-9.234017
14.509753,1.502565,3.514365,-8.98561,-0.550237,3.307558,-9.120289
14.543736,1.087306,3.33614,-8.439264,-0.50729,3.406472,-9.289834
14.576702,1.824447,3.923638,-9.330088,-0.530933,3.530526,-9.574754
14.610837,1.71401,3.618666,-8.974536,-0.403886,3.30666,-9.189873
14.644281,1.220787,3.305014,-8.842402,-0.161465,3.356042,-9.030952
14.677111,2.001774,3.44912,-8.980971,-0.438603,3.372353,-9.175657
14.711943,2.327397,3.514963,-8.934432,-0.469879,3.356042,-9.267687
14.743131,-1.013232,3.990528,-9.254668,-0.944846,3.124245,-8.955382
14.776353,2.001175,3.902688,-8.95194,0.328915,3.699024,-8.756058
14.809643,2.92103,2.918486,-8.561073,-0.787421,3.698874,-9.3672
14.843084,0.67459,4.060711,-9.059983,-0.023943,3.129333,-8.849285
14.876438,-1.501667,-0.898007,-10.753941,-0.401342,3.472165,-9.467311
14.909434,4.935673,-1.252063,-9.008056,-0.49876,3.466479,-9.333829
14.943003,-2.187181,-1.348133,-12.090851,-0.175232,3.443135,-9.331435
14.97643,2.761361,3.3318,-13.619902,-0.593334,3.374448,-9.295072
15.009683,2.833489,0.584655,-9.831242,-0.591239,3.433557,-9.400271
15.043191,2.788447,6.548974,-14.686258,-0.374556,3.356491,-9.210523
15.076532,3.394201,3.310401,-11.969939,-0.473021,3.234233,-9.002669
15.109851,4.105754,5.052844,-6.534309,-0.660524,3.423382,-9.374532
15.144421,4.958569,5.638995,-10.796589,-0.612638,3.431462,-9.378572
15.176472,5.202636,6.388706,-11.061158,-1.19041,3.254285,-9.503824
15.210211,0.082603,4.469087,-8.4451,0.03367,3.505087,-9.363309
15.245472,8.700241,5.336417,-1.531745,-0.183612,3.430116,-9.327395
15.276628,2.709585,1.771473,-13.661802,-0.351511,3.3529,-9.319164
15.310288,1.085061,3.148787,-7.657379,-0.589294,3.44927,-9.145878
15.3453,5.747636,4.235045,-3.10958,-0.379495,3.381182,-9.257511
15.376642,1.588909,3.676278,-6.982639,-0.393411,3.368612,-9.2623
15.410476,-0.51971,5.730876,-7.909977,-0.455513,3.395398,-9.291779
15.444088,-2.547522,4.333211,-8.231709,-0.485442,3.436401,-9.410446
15.47718,-3.209093,5.863609,-7.177923,-0.577023,3.275834,-9.18269
15.527142,-0.903394,4.977424,-7.957862,-0.428577,3.479199,-9.420921
15.543257,-0.52809,4.582067,-9.228331,-0.364231,3.310401,-9.225637
15.576438,0.738638,4.169052,-8.698744,-0.409573,3.369211,-9.233119
15.609926,0.56146,6.394393,-8.83477,-0.283573,3.346016,-9.297017
15.643646,-1.868292,3.841185,-7.59857,-0.503549,3.426375,-9.400121
15.678544,0.102505,2.94213,-9.045018,-0.556223,3.338384,-9.255416
15.709935,-0.946492,3.025331,-9.125377,-0.551734,3.324019,-9.250478
15.7435,-1.495532,3.298879,-9.201844,-0.549639,3.370707,-9.317967
15.777385,0.143807,3.014707,-8.706526,-0.491128,3.387168,-9.314675
15.810103,-0.145004,2.908161,-8.777457,-0.525247,3.33599,-9.253621
15.843507,-1.313117,2.411346,-9.112657,-0.614584,3.341377,-9.284896
15.876901,0.528689,2.756124,-8.912435,-0.506092,3.357539,-9.27891
15.909577,-0.115524,2.372888,-10.724162,-0.440549,3.348411,-9.235214
15.943805,-0.579268,2.391294,-9.694469,-0.637778,3.376543,-9.23701
15.975597,0.204712,2.478087,-10.202656,-0.374706,3.324917,-9.197804
16.009799,-0.252448,2.352686,-9.343107,-0.360191,3.338085,-9.187179
16.043656,-0.437556,2.312732,-9.524774,-0.572983,3.337936,-9.265891
16.076636,0.351362,2.843066,-9.672322,-0.522703,3.349009,-9.257362
16.110272,0.457758,2.446812,-10.266853,-0.580465,3.395099,-9.264844
16.144433,-0.106546,2.598699,-9.198851,-0.491128,3.340928,-9.243894
16.176559,0.939458,2.430351,-8.48281,-0.565501,3.400636,-9.252723
16.209916,1.615695,2.356727,-9.657806,-0.575826,3.39046,-9.232072
16.244383,1.15689,2.348197,-8.928446,-0.492325,3.376394,-9.205585
16.276578,0.813908,3.352451,-9.722901,-0.548741,3.40318,-9.259008
16.309951,2.286993,2.638654,-8.936826,-0.598422,3.38627,-9.286542
16.344052,0.925991,2.822266,-8.476076,-0.562508,3.346316,-9.255117
16.37649,0.375903,2.961135,-9.601989,-0.512677,3.461541,-9.356575
16.409548,1.214801,3.677924,-9.339216,-0.488734,3.387916,-9.243146
16.44281,0.306469,3.582303,-7.678778,-0.493373,3.352152,-9.18673
16.475917,0.509983,3.92693,-8.50795,-0.593783,3.427123,-9.352535
16.51049,1.587113,3.048077,-6.853198,-0.557121,3.329705,-9.230127
16.543538,-0.951131,2.145281,-8.638887,-0.418102,3.397344,-9.172514
16.577956,-0.490829,3.764418,-10.749601,-0.487088,3.324019,-9.15321
16.609438,0.691051,3.840886,-9.428852,-1.085061,2.65721,-8.538327
16.643878,-0.962055,2.391893,-9.623688,-0.344328,3.111376,-9.260803
16.676926,0.08814,2.889755,-8.13085,-0.131835,3.752147,-9.846805
16.709751,-0.435611,3.628093,-7.49771,-0.151888,3.328957,-9.079586
16.743303,0.649001,2.839924,-9.753278,-0.432169,3.333895,-9.158448
16.776924,0.445337,3.253986,-9.483622,-0.410471,3.47426,-9.384558
16.809772,0.045641,3.276881,-9.153809,-0.352259,3.431612,-9.328442
16.843545,0.602463,3.213433,-8.979175,-0.23479,3.448073,-9.326497
16.876944,-0.28088,3.123946,-9.329041,0.065693,3.493714,-9.578196
16.910192,0.020351,3.485783,-9.992557,-0.3982,3.306959,-9.100985
16.943677,-0.106396,3.511372,-9.922674,-0.347172,3.406322,-9.244642
16.976153,-0.439801,3.762622,-8.880112,-0.418851,3.444781,-9.293426
17.010591,0.639724,3.657274,-9.497987,-0.583308,3.392855,-9.273523
17.043298,0.387575,3.591281,-9.501429,-0.558617,3.35724,-9.254369
17.077036,0.032173,3.584248,-9.47195,-0.235239,3.520051,-9.347147
17.11017,0.381889,3.148787,-9.772732,-0.458057,3.319529,-9.199151
17.144944,0.677733,3.581105,-9.160543,-0.592436,3.483688,-9.326497
17.176742,0.552781,4.117126,-9.743701,-0.491278,3.43655,-9.29163
17.210069,0.706165,3.491769,-8.990548,-0.320685,3.34018,-9.11984
17.244125,1.25715,3.699922,-9.081232,-0.674291,3.494163,-9.482574
17.277558,0.419449,4.051583,-9.289684,-0.332656,3.45346,-9.359119
17.31001,1.347385,3.712193,-8.751868,-0.384732,3.375496,-9.218155
17.344052,1.611505,3.52484,-8.980073,-0.343131,3.368163,-9.174908
17.377093,1.289623,3.80527,-9.021375,-0.415708,3.39061,-9.218006
17.4101,1.517978,3.622257,-8.824894,-0.381141,3.374897,-9.253022
17.444315,1.540873,3.691841,-8.728673,-0.536171,3.462139,-9.367349
17.476429,2.060583,3.797489,-8.78853,-0.401492,3.452113,-9.348943
17.50998,2.030056,3.80123,-8.706975,-0.38967,3.377741,-9.214264
17.544642,1.140279,4.143314,-8.580826,-0.508038,3.363225,-9.172813
17.576474,2.092757,3.831907,-8.56646,-0.535123,3.429367,-9.385606
17.609922,2.107272,3.921992,-8.986209,-0.317393,3.379836,-9.293276
17.644301,1.637543,4.0863,-8.925005,-0.650498,3.464384,-9.490056
17.676467,2.43514,3.686454,-6.799476,-0.661871,3.295138,-9.024667
17.710097,2.227735,3.422334,-9.106222,-0.069285,3.230492,-9.152163
17.743689,1.799905,3.557013,-9.143184,-0.755098,3.466629,-9.36705